...1,success,timeout,failed_images,failed_audio,failed_video,trial_type,trial_index,time_elapsed,internal_node_id,rt,stimulus,response,view_history,trial,character_choice,stimulus_dict,accuracy,correct_response,ball_pos,ego_ball_visible,ego_can_infer,alter_ball_visible,alter_can_infer,collective_ball_visible,collective_can_infer,search_locations,alter_occluders,ego_occluders,accuracy_bool,feedback,age,ethnicity,gender,race,overall_accuracy,bonus,workerid
1,NA,NA,NA,NA,NA,survey-html-form,318,599024,0.0-293.0,13425,NA,"{""feedback"":"""",""age"":""56"",""gender"":""Female"",""other_gender"":"""",""race"":""White"",""other_race"":"""",""ethnicity"":""Non-Hispanic""}",NA,exit_survey,NA,NA,NA,NA,NA,NA,NA,NA,NA,NA,NA,NA,NA,NA,NA,NA,56,Non-Hispanic,Female,White,0.6944444444444444,0.6944444444444444,09ce7m84v7
2,NA,NA,NA,NA,NA,survey-html-form,318,472608,0.0-293.0,70055,NA,"{""feedback"":""When it was not visible to them I tried to just select the correct answer or use intuition to try to guess which one they would pick if it was not clear to me.\n\nNo specific comments but it was enjoyable."",""age"":""36"",""gender"":""Female"",""other_gender"":"""",""race"":""White"",""other_race"":"""",""ethnicity"":""Non-Hispanic""}",NA,exit_survey,NA,NA,NA,NA,NA,NA,NA,NA,NA,NA,NA,NA,NA,NA,NA,"When it was not visible to them I tried to just select the correct answer or use intuition to try to guess which one they would pick if it was not clear to me.

No specific comments but it was enjoyable.",36,Non-Hispanic,Female,White,0.7013888888888888,0.7013888888888888,0p54mu6bod
3,NA,NA,NA,NA,NA,survey-html-form,318,468221,0.0-293.0,15410,NA,"{""feedback"":""whether he could see it and whether or not i could see it"",""age"":""37"",""gender"":""Female"",""other_gender"":"""",""race"":""White"",""other_race"":"""",""ethnicity"":""Non-Hispanic""}",NA,exit_survey,NA,NA,NA,NA,NA,NA,NA,NA,NA,NA,NA,NA,NA,NA,NA,whether he could see it and whether or not i could see it,37,Non-Hispanic,Female,White,0.6666666666666666,0.6666666666666666,0w3ydtnvee
4,NA,NA,NA,NA,NA,survey-html-form,318,481868,0.0-293.0,18632,NA,"{""feedback"":""None. Trusted my gut"",""age"":""28"",""gender"":""Male"",""other_gender"":"""",""race"":""Asian"",""other_race"":"""",""ethnicity"":""Non-Hispanic""}",NA,exit_survey,NA,NA,NA,NA,NA,NA,NA,NA,NA,NA,NA,NA,NA,NA,NA,None. Trusted my gut,28,Non-Hispanic,Male,Asian,0.6527777777777778,0.6527777777777778,17dk1wv29n
5,NA,NA,NA,NA,NA,survey-html-form,318,690007,0.0-293.0,41156,NA,"{""feedback"":""guess estimate"",""age"":""55"",""gender"":""Female"",""other_gender"":"""",""race"":""White"",""other_race"":""""}",NA,exit_survey,NA,NA,NA,NA,NA,NA,NA,NA,NA,NA,NA,NA,NA,NA,NA,guess estimate,55,NA,Female,White,0.6666666666666666,0.6666666666666666,1a5ocduvmr
6,NA,NA,NA,NA,NA,survey-html-form,318,541913,0.0-293.0,95710,NA,"{""feedback"":""I mostly choose where the red ball would probably be vs where he would pick where the ball would be. I have no comments or questions."",""age"":""26"",""gender"":""Male"",""other_gender"":"""",""race"":""Asian"",""other_race"":"""",""ethnicity"":""Non-Hispanic""}",NA,exit_survey,NA,NA,NA,NA,NA,NA,NA,NA,NA,NA,NA,NA,NA,NA,NA,I mostly choose where the red ball would probably be vs where he would pick where the ball would be. I have no comments or questions.,26,Non-Hispanic,Male,Asian,0.6111111111111112,0.6111111111111112,1bs8ozqk4z
7,NA,NA,NA,NA,NA,survey-html-form,318,949484,0.0-293.0,40863,NA,"{""feedback"":""I have none."",""age"":""45"",""gender"":""Male"",""other_gender"":"""",""race"":""White"",""other_race"":"""",""ethnicity"":""Non-Hispanic""}",NA,exit_survey,NA,NA,NA,NA,NA,NA,NA,NA,NA,NA,NA,NA,NA,NA,NA,I have none.,45,Non-Hispanic,Male,White,0.6458333333333334,0.6458333333333334,1gabon1ypa
8,NA,NA,NA,NA,NA,survey-html-form,318,591736,0.0-293.0,15742,NA,"{""feedback"":"""",""age"":""59"",""gender"":""Female"",""other_gender"":"""",""race"":""White"",""other_race"":"""",""ethnicity"":""Non-Hispanic""}",NA,exit_survey,NA,NA,NA,NA,NA,NA,NA,NA,NA,NA,NA,NA,NA,NA,NA,NA,59,Non-Hispanic,Female,White,0.6736111111111112,0.6736111111111112,1go3ulc8ke
9,NA,NA,NA,NA,NA,survey-html-form,318,481663,0.0-293.0,39787,NA,"{""feedback"":""Tried to see if it was obvious and if not, went with my gut."",""age"":""39"",""gender"":""Female"",""other_gender"":"""",""race"":""Multiracial"",""other_race"":"""",""ethnicity"":""Hispanic""}",NA,exit_survey,NA,NA,NA,NA,NA,NA,NA,NA,NA,NA,NA,NA,NA,NA,NA,"Tried to see if it was obvious and if not, went with my gut.",39,Hispanic,Female,Multiracial,0.6458333333333334,0.6458333333333334,1gw8q7scsh
10,NA,NA,NA,NA,NA,survey-html-form,318,448707,0.0-293.0,32246,NA,"{""feedback"":""I tried to pay attention to what Sam could see to determine where he would guess."",""age"":""40"",""gender"":""Male"",""other_gender"":"""",""race"":""White"",""other_race"":"""",""ethnicity"":""Non-Hispanic""}",NA,exit_survey,NA,NA,NA,NA,NA,NA,NA,NA,NA,NA,NA,NA,NA,NA,NA,I tried to pay attention to what Sam could see to determine where he would guess.,40,Non-Hispanic,Male,White,0.6388888888888888,0.6388888888888888,1lbg5j919v
11,NA,NA,NA,NA,NA,survey-html-form,318,634585,0.0-293.0,45670,NA,"{""feedback"":""I tried to stick to one basket when I was making a random guess. "",""age"":""40"",""gender"":""Male"",""other_gender"":"""",""race"":""White"",""other_race"":"""",""ethnicity"":""Non-Hispanic""}",NA,exit_survey,NA,NA,NA,NA,NA,NA,NA,NA,NA,NA,NA,NA,NA,NA,NA,I tried to stick to one basket when I was making a random guess.,40,Non-Hispanic,Male,White,0.6041666666666666,0.6041666666666666,1n95x7os0r
12,NA,NA,NA,NA,NA,survey-html-form,318,558905,0.0-293.0,45549,NA,"{""feedback"":""Some were random (if I knew he couldn't see), some were based on knowing he could see the ball "",""age"":""28"",""gender"":""Female"",""other_gender"":"""",""race"":""White"",""other_race"":"""",""ethnicity"":""Non-Hispanic""}",NA,exit_survey,NA,NA,NA,NA,NA,NA,NA,NA,NA,NA,NA,NA,NA,NA,NA,"Some were random (if I knew he couldn't see), some were based on knowing he could see the ball",28,Non-Hispanic,Female,White,0.5833333333333334,0.5833333333333334,1osyxxnlsp
13,NA,NA,NA,NA,NA,survey-html-form,318,521699,0.0-293.0,11206,NA,"{""feedback"":"""",""age"":""43"",""gender"":""Female"",""other_gender"":"""",""race"":""White"",""other_race"":""""}",NA,exit_survey,NA,NA,NA,NA,NA,NA,NA,NA,NA,NA,NA,NA,NA,NA,NA,NA,43,NA,Female,White,0.6388888888888888,0.6388888888888888,285ekswh75
14,NA,NA,NA,NA,NA,survey-html-form,318,538422,0.0-293.0,15614,NA,"{""feedback"":"""",""age"":""43"",""gender"":""Female"",""other_gender"":"""",""race"":""White"",""other_race"":"""",""ethnicity"":""Non-Hispanic""}",NA,exit_survey,NA,NA,NA,NA,NA,NA,NA,NA,NA,NA,NA,NA,NA,NA,NA,NA,43,Non-Hispanic,Female,White,0.4166666666666667,0.4166666666666667,29cfm6mrc5
15,NA,NA,NA,NA,NA,survey-html-form,318,893364,0.0-293.0,35086,NA,"{""feedback"":""I selected the option that I personally would have chosen in Sam's position.\n"",""age"":""29"",""gender"":""Male"",""other_gender"":"""",""race"":""White"",""other_race"":"""",""ethnicity"":""Hispanic""}",NA,exit_survey,NA,NA,NA,NA,NA,NA,NA,NA,NA,NA,NA,NA,NA,NA,NA,"I selected the option that I personally would have chosen in Sam's position.
",29,Hispanic,Male,White,0.5833333333333334,0.5833333333333334,2b8ak3w2gy
16,NA,NA,NA,NA,NA,survey-html-form,318,598984,0.0-293.0,51126,NA,"{""feedback"":""I chose randomly when the red ball was not visible. I have no questions."",""age"":""42"",""gender"":""Female"",""other_gender"":"""",""race"":""Black/African American"",""other_race"":"""",""ethnicity"":""Non-Hispanic""}",NA,exit_survey,NA,NA,NA,NA,NA,NA,NA,NA,NA,NA,NA,NA,NA,NA,NA,I chose randomly when the red ball was not visible. I have no questions.,42,Non-Hispanic,Female,Black/African American,0.6388888888888888,0.6388888888888888,2f9ckn0uql
17,NA,NA,NA,NA,NA,survey-html-form,318,671831,0.0-293.0,32092,NA,"{""feedback"":"""",""age"":""50"",""gender"":""Male"",""other_gender"":"""",""race"":""Black/African American"",""other_race"":"""",""ethnicity"":""Non-Hispanic""}",NA,exit_survey,NA,NA,NA,NA,NA,NA,NA,NA,NA,NA,NA,NA,NA,NA,NA,NA,50,Non-Hispanic,Male,Black/African American,0.2986111111111111,0.2986111111111111,2o7tsj74g6
18,NA,NA,NA,NA,NA,survey-html-form,318,290549,0.0-293.0,7914,NA,"{""feedback"":"""",""age"":""38"",""gender"":""Male"",""other_gender"":"""",""race"":""White"",""other_race"":"""",""ethnicity"":""Non-Hispanic""}",NA,exit_survey,NA,NA,NA,NA,NA,NA,NA,NA,NA,NA,NA,NA,NA,NA,NA,NA,38,Non-Hispanic,Male,White,0.5972222222222222,0.5972222222222222,30dkfglhpn
19,NA,NA,NA,NA,NA,survey-html-form,318,592422,0.0-293.0,57539,NA,"{""feedback"":""I went with my gut instinct. Great experiment"",""age"":""58"",""gender"":""Female"",""other_gender"":"""",""race"":""Black/African American"",""other_race"":"""",""ethnicity"":""Non-Hispanic""}",NA,exit_survey,NA,NA,NA,NA,NA,NA,NA,NA,NA,NA,NA,NA,NA,NA,NA,I went with my gut instinct. Great experiment,58,Non-Hispanic,Female,Black/African American,0.5625,0.5625,33h7zfrkrg
20,NA,NA,NA,NA,NA,survey-html-form,318,512818,0.0-293.0,81679,NA,"{""feedback"":""For some, it was easy as there was an obvious choice. For others, it could be narrowed down to two choices, and I just picked one. On others, it could have been any of the three, and that was just a pure guess."",""age"":""69"",""gender"":""Male"",""other_gender"":"""",""race"":""White"",""other_race"":"""",""ethnicity"":""Non-Hispanic""}",NA,exit_survey,NA,NA,NA,NA,NA,NA,NA,NA,NA,NA,NA,NA,NA,NA,NA,"For some, it was easy as there was an obvious choice. For others, it could be narrowed down to two choices, and I just picked one. On others, it could have been any of the three, and that was just a pure guess.",69,Non-Hispanic,Male,White,0.6319444444444444,0.6319444444444444,35ezh4tapo
21,NA,NA,NA,NA,NA,survey-html-form,318,1410243,0.0-293.0,10247,NA,"{""feedback"":"""",""age"":""31"",""gender"":""Male"",""other_gender"":"""",""race"":""Black/African American"",""other_race"":"""",""ethnicity"":""Non-Hispanic""}",NA,exit_survey,NA,NA,NA,NA,NA,NA,NA,NA,NA,NA,NA,NA,NA,NA,NA,NA,31,Non-Hispanic,Male,Black/African American,0.6319444444444444,0.6319444444444444,3ap3f2j28t
22,NA,NA,NA,NA,NA,survey-html-form,318,909997,0.0-293.0,50348,NA,"{""feedback"":""Things didn't line up correctly. I would pick the one with the ball, and then it would tell me that it was the wrong one when the. ball was clearly there and square was clearly around the ball. It would still say it was the wrong one on quite a few."",""age"":""54"",""gender"":""Female"",""other_gender"":"""",""race"":""White"",""other_race"":"""",""ethnicity"":""Non-Hispanic""}",NA,exit_survey,NA,NA,NA,NA,NA,NA,NA,NA,NA,NA,NA,NA,NA,NA,NA,"Things didn't line up correctly. I would pick the one with the ball, and then it would tell me that it was the wrong one when the. ball was clearly there and square was clearly around the ball. It would still say it was the wrong one on quite a few.",54,Non-Hispanic,Female,White,0.4791666666666667,0.4791666666666667,3c3ngp04sn
23,NA,NA,NA,NA,NA,survey-html-form,318,324558,0.0-293.0,29874,NA,"{""feedback"":""I based it off what i could see and what he couldnt"",""age"":""31"",""gender"":""Male"",""other_gender"":"""",""race"":""White"",""other_race"":"""",""ethnicity"":""Non-Hispanic""}",NA,exit_survey,NA,NA,NA,NA,NA,NA,NA,NA,NA,NA,NA,NA,NA,NA,NA,I based it off what i could see and what he couldnt,31,Non-Hispanic,Male,White,0.5972222222222222,0.5972222222222222,3ntlvew2de
24,NA,NA,NA,NA,NA,survey-html-form,318,304467,0.0-293.0,16080,NA,"{""feedback"":""N/A"",""age"":""35"",""gender"":""Female"",""other_gender"":"""",""race"":""White"",""other_race"":"""",""ethnicity"":""Non-Hispanic""}",NA,exit_survey,NA,NA,NA,NA,NA,NA,NA,NA,NA,NA,NA,NA,NA,NA,NA,N/A,35,Non-Hispanic,Female,White,0.5972222222222222,0.5972222222222222,3xo0a304up
25,NA,NA,NA,NA,NA,survey-html-form,318,443341,0.0-293.0,30309,NA,"{""feedback"":""Sams view of the balls and whether he was guessing or not"",""age"":""37"",""gender"":""Male"",""other_gender"":"""",""race"":""White"",""other_race"":"""",""ethnicity"":""Non-Hispanic""}",NA,exit_survey,NA,NA,NA,NA,NA,NA,NA,NA,NA,NA,NA,NA,NA,NA,NA,Sams view of the balls and whether he was guessing or not,37,Non-Hispanic,Male,White,0.6458333333333334,0.6458333333333334,3xuy6a30dc
26,NA,NA,NA,NA,NA,survey-html-form,318,650771,0.0-293.0,12844,NA,"{""feedback"":"""",""age"":""31"",""gender"":""Female"",""other_gender"":"""",""race"":""Black/African American"",""other_race"":"""",""ethnicity"":""Non-Hispanic""}",NA,exit_survey,NA,NA,NA,NA,NA,NA,NA,NA,NA,NA,NA,NA,NA,NA,NA,NA,31,Non-Hispanic,Female,Black/African American,0.5902777777777778,0.5902777777777778,3ym48lgaln
27,NA,NA,NA,NA,NA,survey-html-form,318,475800,0.0-293.0,11835,NA,"{""feedback"":"""",""age"":""23"",""gender"":""Female"",""other_gender"":"""",""race"":""White"",""other_race"":"""",""ethnicity"":""Non-Hispanic""}",NA,exit_survey,NA,NA,NA,NA,NA,NA,NA,NA,NA,NA,NA,NA,NA,NA,NA,NA,23,Non-Hispanic,Female,White,0.6597222222222222,0.6597222222222222,40261lwouf
28,NA,NA,NA,NA,NA,survey-html-form,318,590808,0.0-293.0,38062,NA,"{""feedback"":"""",""age"":""57"",""gender"":""Female"",""other_gender"":"""",""race"":""White"",""other_race"":"""",""ethnicity"":""Non-Hispanic""}",NA,exit_survey,NA,NA,NA,NA,NA,NA,NA,NA,NA,NA,NA,NA,NA,NA,NA,NA,57,Non-Hispanic,Female,White,0.5694444444444444,0.5694444444444444,4h0f2pmrt7
29,NA,NA,NA,NA,NA,survey-html-form,318,433593,0.0-293.0,28940,NA,"{""feedback"":""I was trying to find any type of pattern."",""age"":""36"",""gender"":""Female"",""other_gender"":"""",""race"":""White"",""other_race"":"""",""ethnicity"":""Non-Hispanic""}",NA,exit_survey,NA,NA,NA,NA,NA,NA,NA,NA,NA,NA,NA,NA,NA,NA,NA,I was trying to find any type of pattern.,36,Non-Hispanic,Female,White,0.6180555555555556,0.6180555555555556,4hz6n0deg5
30,NA,NA,NA,NA,NA,survey-html-form,318,685249,0.0-293.0,117020,NA,"{""feedback"":""Whether the other character could see the ball and tried to look for patterns when they could not. "",""age"":""45"",""gender"":""Male"",""other_gender"":"""",""race"":""White"",""other_race"":"""",""ethnicity"":""Non-Hispanic""}",NA,exit_survey,NA,NA,NA,NA,NA,NA,NA,NA,NA,NA,NA,NA,NA,NA,NA,Whether the other character could see the ball and tried to look for patterns when they could not.,45,Non-Hispanic,Male,White,0.6458333333333334,0.6458333333333334,4loy07komv
31,NA,NA,NA,NA,NA,survey-html-form,318,491469,0.0-293.0,38803,NA,"{""feedback"":""Whether or not Sam could see the red ball on their side of the table."",""age"":""24"",""gender"":""Female"",""other_gender"":"""",""race"":""White"",""other_race"":"""",""ethnicity"":""Non-Hispanic""}",NA,exit_survey,NA,NA,NA,NA,NA,NA,NA,NA,NA,NA,NA,NA,NA,NA,NA,Whether or not Sam could see the red ball on their side of the table.,24,Non-Hispanic,Female,White,0.6180555555555556,0.6180555555555556,4ou41qfex4
32,NA,NA,NA,NA,NA,survey-html-form,318,474836,0.0-293.0,56849,NA,"{""feedback"":""When it was not visible, I considered previous locations of the ball and previous guesses that Sam made."",""age"":""36"",""gender"":""Male"",""other_gender"":"""",""race"":""Black/African American"",""other_race"":"""",""ethnicity"":""Non-Hispanic""}",NA,exit_survey,NA,NA,NA,NA,NA,NA,NA,NA,NA,NA,NA,NA,NA,NA,NA,"When it was not visible, I considered previous locations of the ball and previous guesses that Sam made.",36,Non-Hispanic,Male,Black/African American,0.6180555555555556,0.6180555555555556,4rxr83424b
33,NA,NA,NA,NA,NA,survey-html-form,318,575723,0.0-293.0,33424,NA,"{""feedback"":""I just picked whatever made sense in my head at the time."",""age"":""48"",""gender"":""Male"",""other_gender"":"""",""race"":""White"",""other_race"":"""",""ethnicity"":""Non-Hispanic""}",NA,exit_survey,NA,NA,NA,NA,NA,NA,NA,NA,NA,NA,NA,NA,NA,NA,NA,I just picked whatever made sense in my head at the time.,48,Non-Hispanic,Male,White,0.6319444444444444,0.6319444444444444,4vqkfplraz
34,NA,NA,NA,NA,NA,survey-html-form,318,588678,0.0-293.0,73382,NA,"{""feedback"":""mostly I just went with what I felt or what was logical"",""age"":""42"",""gender"":""Female"",""other_gender"":"""",""race"":""White"",""other_race"":"""",""ethnicity"":""Non-Hispanic""}",NA,exit_survey,NA,NA,NA,NA,NA,NA,NA,NA,NA,NA,NA,NA,NA,NA,NA,mostly I just went with what I felt or what was logical,42,Non-Hispanic,Female,White,0.6597222222222222,0.6597222222222222,51gfkdoeq9
35,NA,NA,NA,NA,NA,survey-html-form,318,508779,0.0-293.0,26298,NA,"{""feedback"":""Guessed"",""age"":""68"",""gender"":""Male"",""other_gender"":"""",""race"":""White"",""other_race"":"""",""ethnicity"":""Non-Hispanic""}",NA,exit_survey,NA,NA,NA,NA,NA,NA,NA,NA,NA,NA,NA,NA,NA,NA,NA,Guessed,68,Non-Hispanic,Male,White,0.5416666666666666,0.5416666666666666,55edgn21x6
36,NA,NA,NA,NA,NA,survey-html-form,318,501761,0.0-293.0,93976,NA,"{""feedback"":""I tried to find patterns in his selections, but mostly I just went with my gut instinct and tried not to overthink my choices too much. I was obviously striving for accuracy, but I tried not to stress too much about it because anxiety can affect my cognition at times if I get flustered."",""age"":""43"",""gender"":""Male"",""other_gender"":"""",""race"":""White"",""other_race"":""""}",NA,exit_survey,NA,NA,NA,NA,NA,NA,NA,NA,NA,NA,NA,NA,NA,NA,NA,"I tried to find patterns in his selections, but mostly I just went with my gut instinct and tried not to overthink my choices too much. I was obviously striving for accuracy, but I tried not to stress too much about it because anxiety can affect my cognition at times if I get flustered.",43,NA,Male,White,0.6111111111111112,0.6111111111111112,5bukuggdjh
37,NA,NA,NA,NA,NA,survey-html-form,318,342535,0.0-293.0,8918,NA,"{""feedback"":"""",""age"":""32"",""gender"":""Male"",""other_gender"":"""",""race"":""Asian"",""other_race"":"""",""ethnicity"":""Non-Hispanic""}",NA,exit_survey,NA,NA,NA,NA,NA,NA,NA,NA,NA,NA,NA,NA,NA,NA,NA,NA,32,Non-Hispanic,Male,Asian,0.7222222222222222,0.7222222222222222,5cr1mksuu1
38,NA,NA,NA,NA,NA,survey-html-form,318,522689,0.0-293.0,13733,NA,"{""feedback"":""Nothing I can think of"",""age"":""33"",""gender"":""Male"",""other_gender"":"""",""race"":""White"",""other_race"":"""",""ethnicity"":""Non-Hispanic""}",NA,exit_survey,NA,NA,NA,NA,NA,NA,NA,NA,NA,NA,NA,NA,NA,NA,NA,Nothing I can think of,33,Non-Hispanic,Male,White,0.6388888888888888,0.6388888888888888,5do8am51a1
39,NA,NA,NA,NA,NA,survey-html-form,318,961050,0.0-293.0,109628,NA,"{""feedback"":""If he could see it I chose that one. I he couldn't see the ball in one I chose One of the others at random\n"",""age"":""71"",""gender"":""Male"",""other_gender"":"""",""race"":""White"",""other_race"":"""",""ethnicity"":""Non-Hispanic""}",NA,exit_survey,NA,NA,NA,NA,NA,NA,NA,NA,NA,NA,NA,NA,NA,NA,NA,"If he could see it I chose that one. I he couldn't see the ball in one I chose One of the others at random
",71,Non-Hispanic,Male,White,0.6458333333333334,0.6458333333333334,64579q55hc
40,NA,NA,NA,NA,NA,survey-html-form,318,473626,0.0-293.0,52324,NA,"{""feedback"":""I noticed there was a pattern mid-way through the experiment and it helped predict where Sam would pick the ball. "",""age"":""43"",""gender"":""Female"",""other_gender"":"""",""race"":""Black/African American"",""other_race"":"""",""ethnicity"":""Non-Hispanic""}",NA,exit_survey,NA,NA,NA,NA,NA,NA,NA,NA,NA,NA,NA,NA,NA,NA,NA,I noticed there was a pattern mid-way through the experiment and it helped predict where Sam would pick the ball.,43,Non-Hispanic,Female,Black/African American,0.6597222222222222,0.6597222222222222,64m3cuuytf
41,NA,NA,NA,NA,NA,survey-html-form,318,454285,0.0-293.0,18698,NA,"{""feedback"":""I tried to see the scene from his perspective"",""age"":""36"",""gender"":""Male"",""other_gender"":"""",""race"":""White"",""other_race"":"""",""ethnicity"":""Non-Hispanic""}",NA,exit_survey,NA,NA,NA,NA,NA,NA,NA,NA,NA,NA,NA,NA,NA,NA,NA,I tried to see the scene from his perspective,36,Non-Hispanic,Male,White,0.5902777777777778,0.5902777777777778,6ys0488g84
42,NA,NA,NA,NA,NA,survey-html-form,318,439430,0.0-293.0,53491,NA,"{""feedback"":""If sam could see the red ball and I could not"",""age"":""45"",""gender"":""Male"",""other_gender"":"""",""race"":""White"",""other_race"":"""",""ethnicity"":""Hispanic""}",NA,exit_survey,NA,NA,NA,NA,NA,NA,NA,NA,NA,NA,NA,NA,NA,NA,NA,If sam could see the red ball and I could not,45,Hispanic,Male,White,0.6180555555555556,0.6180555555555556,743ot770au
43,NA,NA,NA,NA,NA,survey-html-form,318,443694,0.0-293.0,69601,NA,"{""feedback"":""I looked at whether the ball was visible to Sam first. Then I looked at what baskets were visible to Sam. Then I looked at how many times he selected a specific basket when no baskets were visible."",""age"":""41"",""gender"":""Female"",""other_gender"":"""",""race"":""White"",""other_race"":"""",""ethnicity"":""Non-Hispanic""}",NA,exit_survey,NA,NA,NA,NA,NA,NA,NA,NA,NA,NA,NA,NA,NA,NA,NA,I looked at whether the ball was visible to Sam first. Then I looked at what baskets were visible to Sam. Then I looked at how many times he selected a specific basket when no baskets were visible.,41,Non-Hispanic,Female,White,0.7013888888888888,0.7013888888888888,76lclkzhqj
44,NA,NA,NA,NA,NA,survey-html-form,318,311553,0.0-293.0,26298,NA,"{""feedback"":""Just going with the flow."",""age"":""26"",""gender"":""Female"",""other_gender"":"""",""race"":""Multiracial"",""other_race"":"""",""ethnicity"":""Non-Hispanic""}",NA,exit_survey,NA,NA,NA,NA,NA,NA,NA,NA,NA,NA,NA,NA,NA,NA,NA,Just going with the flow.,26,Non-Hispanic,Female,Multiracial,0.6388888888888888,0.6388888888888888,7bmmn65zkg
45,NA,NA,NA,NA,NA,survey-html-form,318,392808,0.0-293.0,26881,NA,"{""feedback"":""I only relied on what I could actually see. The rest was simply just guessing."",""age"":""38"",""gender"":""Male"",""other_gender"":"""",""race"":""White"",""other_race"":"""",""ethnicity"":""Non-Hispanic""}",NA,exit_survey,NA,NA,NA,NA,NA,NA,NA,NA,NA,NA,NA,NA,NA,NA,NA,I only relied on what I could actually see. The rest was simply just guessing.,38,Non-Hispanic,Male,White,0.5486111111111112,0.5486111111111112,7dx6wla8m9
46,NA,NA,NA,NA,NA,survey-html-form,318,703707,0.0-293.0,25718,NA,"{""feedback"":""what sam can see and guess"",""age"":""34"",""gender"":""Female"",""other_gender"":"""",""race"":""Asian"",""other_race"":"""",""ethnicity"":""Non-Hispanic""}",NA,exit_survey,NA,NA,NA,NA,NA,NA,NA,NA,NA,NA,NA,NA,NA,NA,NA,what sam can see and guess,34,Non-Hispanic,Female,Asian,0.7083333333333334,0.7083333333333334,7eatx9dbhg
47,NA,NA,NA,NA,NA,survey-html-form,318,368382,0.0-293.0,19377,NA,"{""feedback"":""Whether or not Sam could see the ball"",""age"":""25"",""gender"":""Female"",""other_gender"":"""",""race"":""White"",""other_race"":"""",""ethnicity"":""Non-Hispanic""}",NA,exit_survey,NA,NA,NA,NA,NA,NA,NA,NA,NA,NA,NA,NA,NA,NA,NA,Whether or not Sam could see the ball,25,Non-Hispanic,Female,White,0.6527777777777778,0.6527777777777778,7u64j68gv4
48,NA,NA,NA,NA,NA,survey-html-form,318,370534,0.0-293.0,23928,NA,"{""feedback"":""I looked at what sam and I could both see and then made a decision based on that. "",""age"":""34"",""gender"":""Male"",""other_gender"":"""",""race"":""White"",""other_race"":"""",""ethnicity"":""Non-Hispanic""}",NA,exit_survey,NA,NA,NA,NA,NA,NA,NA,NA,NA,NA,NA,NA,NA,NA,NA,I looked at what sam and I could both see and then made a decision based on that.,34,Non-Hispanic,Male,White,0.6180555555555556,0.6180555555555556,7v4bf755eh
49,NA,NA,NA,NA,NA,survey-html-form,318,511488,0.0-293.0,38369,NA,"{""feedback"":""If Sam could see the ball or not. It didn't matter if I could, but it did matter if he could"",""age"":""31"",""gender"":""Non-binary"",""other_gender"":"""",""race"":""Black/African American"",""other_race"":"""",""ethnicity"":""Non-Hispanic""}",NA,exit_survey,NA,NA,NA,NA,NA,NA,NA,NA,NA,NA,NA,NA,NA,NA,NA,"If Sam could see the ball or not. It didn't matter if I could, but it did matter if he could",31,Non-Hispanic,Non-binary,Black/African American,0.6041666666666666,0.6041666666666666,7ygozqsbju
50,NA,NA,NA,NA,NA,survey-html-form,318,412719,0.0-293.0,36910,NA,"{""feedback"":""just what i thought i would pick if i was sam"",""age"":""30"",""gender"":""Female"",""other_gender"":"""",""race"":""White"",""other_race"":"""",""ethnicity"":""Non-Hispanic""}",NA,exit_survey,NA,NA,NA,NA,NA,NA,NA,NA,NA,NA,NA,NA,NA,NA,NA,just what i thought i would pick if i was sam,30,Non-Hispanic,Female,White,0.6388888888888888,0.6388888888888888,80f19hbm51
51,NA,NA,NA,NA,NA,survey-html-form,318,654838,0.0-293.0,51796,NA,"{""feedback"":""I just tried to imagine I was Sam and then notice his patterns for picking (if there were any)."",""age"":""39"",""gender"":""Female"",""other_gender"":"""",""race"":""Black/African American"",""other_race"":"""",""ethnicity"":""Non-Hispanic""}",NA,exit_survey,NA,NA,NA,NA,NA,NA,NA,NA,NA,NA,NA,NA,NA,NA,NA,I just tried to imagine I was Sam and then notice his patterns for picking (if there were any).,39,Non-Hispanic,Female,Black/African American,0.6666666666666666,0.6666666666666666,84hzchkpuv
52,NA,NA,NA,NA,NA,survey-html-form,318,799548,0.0-293.0,27664,NA,"{""feedback"":""Just guessing mostely"",""age"":""72"",""gender"":""Female"",""other_gender"":"""",""race"":""White"",""other_race"":"""",""ethnicity"":""Non-Hispanic""}",NA,exit_survey,NA,NA,NA,NA,NA,NA,NA,NA,NA,NA,NA,NA,NA,NA,NA,Just guessing mostely,72,Non-Hispanic,Female,White,0.6180555555555556,0.6180555555555556,856lqplz87
53,NA,NA,NA,NA,NA,survey-html-form,318,420756,0.0-293.0,49627,NA,"{""feedback"":""I just guessed on the trials where I couldn't see where the ball was, and then tried to imagine myself as Sam, and chose the one I felt was correct."",""age"":""29"",""gender"":""Female"",""other_gender"":"""",""race"":""Asian"",""other_race"":"""",""ethnicity"":""Non-Hispanic""}",NA,exit_survey,NA,NA,NA,NA,NA,NA,NA,NA,NA,NA,NA,NA,NA,NA,NA,"I just guessed on the trials where I couldn't see where the ball was, and then tried to imagine myself as Sam, and chose the one I felt was correct.",29,Non-Hispanic,Female,Asian,0.6597222222222222,0.6597222222222222,8fv0yzgrcr
54,NA,NA,NA,NA,NA,survey-html-form,318,641125,0.0-293.0,29673,NA,"{""feedback"":""no"",""age"":""50"",""gender"":""Female"",""other_gender"":"""",""race"":""Asian"",""other_race"":"""",""ethnicity"":""Non-Hispanic""}",NA,exit_survey,NA,NA,NA,NA,NA,NA,NA,NA,NA,NA,NA,NA,NA,NA,NA,no,50,Non-Hispanic,Female,Asian,0.5416666666666666,0.5416666666666666,8hay8dky6p
55,NA,NA,NA,NA,NA,survey-html-form,318,744612,0.0-293.0,110278,NA,"{""feedback"":""I guess he would pick middle or left when he had to guess. I lean towards more of middle bias."",""age"":""43"",""gender"":""Male"",""other_gender"":"""",""race"":""Asian"",""other_race"":"""",""ethnicity"":""Non-Hispanic""}",NA,exit_survey,NA,NA,NA,NA,NA,NA,NA,NA,NA,NA,NA,NA,NA,NA,NA,I guess he would pick middle or left when he had to guess. I lean towards more of middle bias.,43,Non-Hispanic,Male,Asian,0.6597222222222222,0.6597222222222222,8kecudf4xd
56,NA,NA,NA,NA,NA,survey-html-form,318,358932,0.0-293.0,47056,NA,"{""feedback"":""Most of the time I tried to see if I knew where the ball was and then if Sam knew where the ball was and then I'd have to make a decision. It seemed like the center was a good bet if he had to guess but I wasn't completely sold on that."",""age"":""41"",""gender"":""Male"",""other_gender"":"""",""race"":""White"",""other_race"":"""",""ethnicity"":""Non-Hispanic""}",NA,exit_survey,NA,NA,NA,NA,NA,NA,NA,NA,NA,NA,NA,NA,NA,NA,NA,Most of the time I tried to see if I knew where the ball was and then if Sam knew where the ball was and then I'd have to make a decision. It seemed like the center was a good bet if he had to guess but I wasn't completely sold on that.,41,Non-Hispanic,Male,White,0.625,0.625,8qdsbdk6bg
57,NA,NA,NA,NA,NA,survey-html-form,318,553782,0.0-293.0,42383,NA,"{""feedback"":""If it was clear by process of elimination I chose that one if I did not know I selected the middle option."",""age"":""50"",""gender"":""Female"",""other_gender"":"""",""race"":""White"",""other_race"":"""",""ethnicity"":""Non-Hispanic""}",NA,exit_survey,NA,NA,NA,NA,NA,NA,NA,NA,NA,NA,NA,NA,NA,NA,NA,If it was clear by process of elimination I chose that one if I did not know I selected the middle option.,50,Non-Hispanic,Female,White,0.6875,0.6875,8rmnkuu8bq
58,NA,NA,NA,NA,NA,survey-html-form,318,596755,0.0-293.0,19246,NA,"{""feedback"":"""",""age"":""35"",""gender"":""Male"",""other_gender"":"""",""race"":""White"",""other_race"":"""",""ethnicity"":""Non-Hispanic""}",NA,exit_survey,NA,NA,NA,NA,NA,NA,NA,NA,NA,NA,NA,NA,NA,NA,NA,NA,35,Non-Hispanic,Male,White,0.5555555555555556,0.5555555555555556,8y5xbj8mts
59,NA,NA,NA,NA,NA,survey-html-form,318,580817,0.0-293.0,56553,NA,"{""feedback"":""Mostly what Sam was able to see, but then partially just based on what I could see as well if I still didn't know what to pick for Sam."",""age"":""38"",""gender"":""Female"",""other_gender"":"""",""race"":""White"",""other_race"":"""",""ethnicity"":""Non-Hispanic""}",NA,exit_survey,NA,NA,NA,NA,NA,NA,NA,NA,NA,NA,NA,NA,NA,NA,NA,"Mostly what Sam was able to see, but then partially just based on what I could see as well if I still didn't know what to pick for Sam.",38,Non-Hispanic,Female,White,0.6875,0.6875,91p99hx9lc
60,NA,NA,NA,NA,NA,survey-html-form,318,626399,0.0-293.0,11613,NA,"{""feedback"":"""",""age"":""51"",""gender"":""Female"",""other_gender"":"""",""race"":""White"",""other_race"":"""",""ethnicity"":""Non-Hispanic""}",NA,exit_survey,NA,NA,NA,NA,NA,NA,NA,NA,NA,NA,NA,NA,NA,NA,NA,NA,51,Non-Hispanic,Female,White,0.5555555555555556,0.5555555555555556,97agweyv33
61,NA,NA,NA,NA,NA,survey-html-form,318,413936,0.0-293.0,9606,NA,"{""feedback"":"""",""age"":""27"",""gender"":""Female"",""other_gender"":"""",""race"":""White"",""other_race"":"""",""ethnicity"":""Non-Hispanic""}",NA,exit_survey,NA,NA,NA,NA,NA,NA,NA,NA,NA,NA,NA,NA,NA,NA,NA,NA,27,Non-Hispanic,Female,White,0.6597222222222222,0.6597222222222222,97xnkvdffn
62,NA,NA,NA,NA,NA,survey-html-form,318,536541,0.0-293.0,43752,NA,"{""feedback"":""I could see the ones that he say, I don't really know the other factors other than maybe intuition"",""age"":""56"",""gender"":""Female"",""other_gender"":"""",""other_race"":"""",""ethnicity"":""Non-Hispanic""}",NA,exit_survey,NA,NA,NA,NA,NA,NA,NA,NA,NA,NA,NA,NA,NA,NA,NA,"I could see the ones that he say, I don't really know the other factors other than maybe intuition",56,Non-Hispanic,Female,NA,0.6180555555555556,0.6180555555555556,9hbdduouz2
63,NA,NA,NA,NA,NA,survey-html-form,318,433639,0.0-293.0,55137,NA,"{""feedback"":""I used my intuition to guess which basket Sam would choose. Everything was clear and understood, thank you.  "",""age"":""38"",""gender"":""Male"",""other_gender"":"""",""race"":""White"",""other_race"":"""",""ethnicity"":""Non-Hispanic""}",NA,exit_survey,NA,NA,NA,NA,NA,NA,NA,NA,NA,NA,NA,NA,NA,NA,NA,"I used my intuition to guess which basket Sam would choose. Everything was clear and understood, thank you.",38,Non-Hispanic,Male,White,0.6319444444444444,0.6319444444444444,9qafy7xh8u
64,NA,NA,NA,NA,NA,survey-html-form,318,820319,0.0-293.0,76349,NA,"{""feedback"":""Sometimes the square selected did not respond to the arrow keys, it would choose an adjacent square."",""age"":""71"",""gender"":""Male"",""other_gender"":"""",""race"":""White"",""other_race"":"""",""ethnicity"":""Non-Hispanic""}",NA,exit_survey,NA,NA,NA,NA,NA,NA,NA,NA,NA,NA,NA,NA,NA,NA,NA,"Sometimes the square selected did not respond to the arrow keys, it would choose an adjacent square.",71,Non-Hispanic,Male,White,0.7013888888888888,0.7013888888888888,9r0n3dkdcy
65,NA,NA,NA,NA,NA,survey-html-form,318,586602,0.0-293.0,105622,NA,"{""feedback"":""Most of the time I just chose the spot the ball was in, and took a guess on the ones where the boxes were covered."",""age"":""69"",""gender"":""Female"",""other_gender"":"""",""race"":""Black/African American"",""other_race"":"""",""ethnicity"":""Non-Hispanic""}",NA,exit_survey,NA,NA,NA,NA,NA,NA,NA,NA,NA,NA,NA,NA,NA,NA,NA,"Most of the time I just chose the spot the ball was in, and took a guess on the ones where the boxes were covered.",69,Non-Hispanic,Female,Black/African American,0.6180555555555556,0.6180555555555556,9ynn7fnc6t
66,NA,NA,NA,NA,NA,survey-html-form,318,807100,0.0-293.0,73810,NA,"{""feedback"":""At first I assumed he would go for one on his right since most people are right handed. It became apparent, though, that he went left."",""age"":""61"",""gender"":""Female"",""other_gender"":"""",""race"":""White"",""other_race"":"""",""ethnicity"":""Non-Hispanic""}",NA,exit_survey,NA,NA,NA,NA,NA,NA,NA,NA,NA,NA,NA,NA,NA,NA,NA,"At first I assumed he would go for one on his right since most people are right handed. It became apparent, though, that he went left.",61,Non-Hispanic,Female,White,0.7361111111111112,0.7361111111111112,af80wh0eq8
67,NA,NA,NA,NA,NA,survey-html-form,318,1016661,0.0-293.0,89315,NA,"{""feedback"":""I figured that he had a preference for choosing the outsides when he couldn't see the ball and would usually start with my right then swap to the left side if it was two in a row that were obscured to him but sometimes he would inexplicably go for the middle"",""age"":""30"",""gender"":""Male"",""other_gender"":"""",""race"":""White"",""other_race"":"""",""ethnicity"":""Hispanic""}",NA,exit_survey,NA,NA,NA,NA,NA,NA,NA,NA,NA,NA,NA,NA,NA,NA,NA,I figured that he had a preference for choosing the outsides when he couldn't see the ball and would usually start with my right then swap to the left side if it was two in a row that were obscured to him but sometimes he would inexplicably go for the middle,30,Hispanic,Male,White,0.6597222222222222,0.6597222222222222,ag59yxepnc
68,NA,NA,NA,NA,NA,survey-html-form,318,2011071,0.0-293.0,36176,NA,"{""feedback"":""Whether or not he could see the ball on his end."",""age"":""25"",""gender"":""Female"",""other_gender"":"""",""race"":""Black/African American"",""other_race"":"""",""ethnicity"":""Non-Hispanic""}",NA,exit_survey,NA,NA,NA,NA,NA,NA,NA,NA,NA,NA,NA,NA,NA,NA,NA,Whether or not he could see the ball on his end.,25,Non-Hispanic,Female,Black/African American,0.6527777777777778,0.6527777777777778,agxmnmcnmu
69,NA,NA,NA,NA,NA,survey-html-form,318,439186,0.0-293.0,36701,NA,"{""feedback"":""I was influenced when I saw the ball but I don't think Sam always was. "",""age"":""57"",""gender"":""Female"",""other_gender"":"""",""race"":""White"",""other_race"":"""",""ethnicity"":""Non-Hispanic""}",NA,exit_survey,NA,NA,NA,NA,NA,NA,NA,NA,NA,NA,NA,NA,NA,NA,NA,I was influenced when I saw the ball but I don't think Sam always was.,57,Non-Hispanic,Female,White,0.6666666666666666,0.6666666666666666,ayk4ahrzk0
70,NA,NA,NA,NA,NA,survey-html-form,318,471326,0.0-293.0,39838,NA,"{""feedback"":""If I couldn't see the ball, then I tended to go with the middle or to the right because those options tended to be pick more likely than the left option."",""age"":""32"",""gender"":""Male"",""other_gender"":"""",""race"":""White"",""other_race"":"""",""ethnicity"":""Non-Hispanic""}",NA,exit_survey,NA,NA,NA,NA,NA,NA,NA,NA,NA,NA,NA,NA,NA,NA,NA,"If I couldn't see the ball, then I tended to go with the middle or to the right because those options tended to be pick more likely than the left option.",32,Non-Hispanic,Male,White,0.6527777777777778,0.6527777777777778,blzfk7wvx1
71,NA,NA,NA,NA,NA,survey-html-form,318,870145,0.0-293.0,159916,NA,"{""feedback"":""It was easier to respond when I could see some, if not all of what Sam could see. Other times I tried to follow a pattern, based on which selection Sam seemed to make more often prior to a selection in which I wasn't able to determine what they would pick based on what I could see. I did make 1 error, believe the answer couldn't be what I chose. "",""age"":""51"",""gender"":""Female"",""other_gender"":"""",""race"":""Black/African American"",""other_race"":"""",""ethnicity"":""Non-Hispanic""}",NA,exit_survey,NA,NA,NA,NA,NA,NA,NA,NA,NA,NA,NA,NA,NA,NA,NA,"It was easier to respond when I could see some, if not all of what Sam could see. Other times I tried to follow a pattern, based on which selection Sam seemed to make more often prior to a selection in which I wasn't able to determine what they would pick based on what I could see. I did make 1 error, believe the answer couldn't be what I chose.",51,Non-Hispanic,Female,Black/African American,0.6180555555555556,0.6180555555555556,bm2acpufyj
72,NA,NA,NA,NA,NA,survey-html-form,318,638195,0.0-293.0,37488,NA,"{""feedback"":""It seemed to be in the middle more often than not in the beginning but then it seemed to switch."",""age"":""49"",""gender"":""Female"",""other_gender"":"""",""race"":""White"",""other_race"":"""",""ethnicity"":""Non-Hispanic""}",NA,exit_survey,NA,NA,NA,NA,NA,NA,NA,NA,NA,NA,NA,NA,NA,NA,NA,It seemed to be in the middle more often than not in the beginning but then it seemed to switch.,49,Non-Hispanic,Female,White,0.5972222222222222,0.5972222222222222,bnqtczge31
73,NA,NA,NA,NA,NA,survey-html-form,318,1134766,0.0-293.0,265385,NA,"{""feedback"":""Whenever possible, I would rule out baskets based on whether he (and I) could see if they were empty. If I could see the baskets were and he couldn't, then it was mostly guessing. Sometimes it seemed to have a pattern or repeat same basket choices. so I assumed the same choice would repeat a couple times."",""age"":""40"",""gender"":""Male"",""other_gender"":"""",""race"":""White"",""other_race"":"""",""ethnicity"":""Non-Hispanic""}",NA,exit_survey,NA,NA,NA,NA,NA,NA,NA,NA,NA,NA,NA,NA,NA,NA,NA,"Whenever possible, I would rule out baskets based on whether he (and I) could see if they were empty. If I could see the baskets were and he couldn't, then it was mostly guessing. Sometimes it seemed to have a pattern or repeat same basket choices. so I assumed the same choice would repeat a couple times.",40,Non-Hispanic,Male,White,0.6527777777777778,0.6527777777777778,bq7pjq64ew
74,NA,NA,NA,NA,NA,survey-html-form,318,350636,0.0-293.0,25804,NA,"{""feedback"":""I just determined whether he could see the ball or not. Otherwise I just had to guess. "",""age"":""35"",""gender"":""Female"",""other_gender"":"""",""race"":""White"",""other_race"":"""",""ethnicity"":""Non-Hispanic""}",NA,exit_survey,NA,NA,NA,NA,NA,NA,NA,NA,NA,NA,NA,NA,NA,NA,NA,I just determined whether he could see the ball or not. Otherwise I just had to guess.,35,Non-Hispanic,Female,White,0.6736111111111112,0.6736111111111112,d067wozwnf
75,NA,NA,NA,NA,NA,survey-html-form,318,558400,0.0-293.0,58862,NA,"{""feedback"":""I was sometimes distracted by if I knew where the ball was \nIf he could see inside the basket\nIf my view and his view of the baskets were blocked\nA pattern of where he would usually look"",""age"":""26"",""gender"":""Female"",""other_gender"":"""",""race"":""White"",""other_race"":"""",""ethnicity"":""Non-Hispanic""}",NA,exit_survey,NA,NA,NA,NA,NA,NA,NA,NA,NA,NA,NA,NA,NA,NA,NA,"I was sometimes distracted by if I knew where the ball was 
If he could see inside the basket
If my view and his view of the baskets were blocked
A pattern of where he would usually look",26,Non-Hispanic,Female,White,0.5972222222222222,0.5972222222222222,d4b254ldwb
76,NA,NA,NA,NA,NA,survey-html-form,318,363387,0.0-293.0,22244,NA,"{""feedback"":""I just made educated guesses"",""age"":""30"",""gender"":""Female"",""other_gender"":"""",""race"":""White"",""other_race"":"""",""ethnicity"":""Non-Hispanic""}",NA,exit_survey,NA,NA,NA,NA,NA,NA,NA,NA,NA,NA,NA,NA,NA,NA,NA,I just made educated guesses,30,Non-Hispanic,Female,White,0.6388888888888888,0.6388888888888888,d5tbvyq57z
77,NA,NA,NA,NA,NA,survey-html-form,318,891699,0.0-293.0,31028,NA,"{""feedback"":""IF I thought he could see it, I tried to quickly determine if he could or couldn't see 1 or 2 of the balls to rule some out "",""age"":""37"",""gender"":""Male"",""other_gender"":"""",""race"":""White"",""other_race"":"""",""ethnicity"":""Non-Hispanic""}",NA,exit_survey,NA,NA,NA,NA,NA,NA,NA,NA,NA,NA,NA,NA,NA,NA,NA,"IF I thought he could see it, I tried to quickly determine if he could or couldn't see 1 or 2 of the balls to rule some out",37,Non-Hispanic,Male,White,0.6180555555555556,0.6180555555555556,d8acqgzedu
78,NA,NA,NA,NA,NA,survey-html-form,318,301305,0.0-293.0,17200,NA,"{""feedback"":""No additional comments. Thanks!"",""age"":""53"",""gender"":""Male"",""other_gender"":"""",""race"":""White"",""other_race"":"""",""ethnicity"":""Non-Hispanic""}",NA,exit_survey,NA,NA,NA,NA,NA,NA,NA,NA,NA,NA,NA,NA,NA,NA,NA,No additional comments. Thanks!,53,Non-Hispanic,Male,White,0.6180555555555556,0.6180555555555556,e16runqyy2
79,NA,NA,NA,NA,NA,survey-html-form,318,924783,0.0-293.0,105338,NA,"{""feedback"":""Influencing factors included which baskets Tom could see and how likely it was that Tom could see the ball, even if I could not."",""age"":""57"",""gender"":""Male"",""other_gender"":"""",""race"":""White"",""other_race"":"""",""ethnicity"":""Non-Hispanic""}",NA,exit_survey,NA,NA,NA,NA,NA,NA,NA,NA,NA,NA,NA,NA,NA,NA,NA,"Influencing factors included which baskets Tom could see and how likely it was that Tom could see the ball, even if I could not.",57,Non-Hispanic,Male,White,0.6111111111111112,0.6111111111111112,e933qmtyl5
80,NA,NA,NA,NA,NA,survey-html-form,318,554513,0.0-293.0,76448,NA,"{""feedback"":""If it was visible to both of us, I knew he'd pick the basket with the ball. If he could see two empty baskets, I knew he'd pick the third. sometimes I just had to guess."",""age"":""54"",""gender"":""Female"",""other_gender"":"""",""race"":""White"",""other_race"":"""",""ethnicity"":""Non-Hispanic""}",NA,exit_survey,NA,NA,NA,NA,NA,NA,NA,NA,NA,NA,NA,NA,NA,NA,NA,"If it was visible to both of us, I knew he'd pick the basket with the ball. If he could see two empty baskets, I knew he'd pick the third. sometimes I just had to guess.",54,Non-Hispanic,Female,White,0.6666666666666666,0.6666666666666666,ecu7re5y35
81,NA,NA,NA,NA,NA,survey-html-form,318,695880,0.0-293.0,48426,NA,"{""feedback"":""I chose what felt right and if I knew for sure which basket he would pick."",""age"":""24"",""gender"":""Female"",""other_gender"":"""",""race"":""Multiracial"",""other_race"":"""",""ethnicity"":""Non-Hispanic""}",NA,exit_survey,NA,NA,NA,NA,NA,NA,NA,NA,NA,NA,NA,NA,NA,NA,NA,I chose what felt right and if I knew for sure which basket he would pick.,24,Non-Hispanic,Female,Multiracial,0.6319444444444444,0.6319444444444444,ee95cyme2s
82,NA,NA,NA,NA,NA,survey-html-form,318,304635,0.0-293.0,7341,NA,"{""feedback"":"""",""age"":""34"",""gender"":""Male"",""other_gender"":"""",""race"":""White"",""other_race"":"""",""ethnicity"":""Non-Hispanic""}",NA,exit_survey,NA,NA,NA,NA,NA,NA,NA,NA,NA,NA,NA,NA,NA,NA,NA,NA,34,Non-Hispanic,Male,White,0.6388888888888888,0.6388888888888888,egbl3t7d1r
83,NA,NA,NA,NA,NA,survey-html-form,318,650567,0.0-293.0,95032,NA,"{""feedback"":""Can Sam see the ball? Can he deduce which basket? Is there anything from Sam's perspective that would let him know where the red ball was?"",""age"":""18"",""gender"":""Male"",""other_gender"":"""",""race"":""White"",""other_race"":"""",""ethnicity"":""Non-Hispanic""}",NA,exit_survey,NA,NA,NA,NA,NA,NA,NA,NA,NA,NA,NA,NA,NA,NA,NA,Can Sam see the ball? Can he deduce which basket? Is there anything from Sam's perspective that would let him know where the red ball was?,18,Non-Hispanic,Male,White,0.6666666666666666,0.6666666666666666,egpa8jvvup
84,NA,NA,NA,NA,NA,survey-html-form,318,734863,0.0-293.0,126913,NA,"{""feedback"":""I selected basked where both I and the character could see the ball in a basket. Where I could see the ball but he could not I just guessed. Where he could see the ball but I could not I just guessed."",""age"":""67"",""gender"":""Male"",""other_gender"":"""",""race"":""White"",""other_race"":"""",""ethnicity"":""Non-Hispanic""}",NA,exit_survey,NA,NA,NA,NA,NA,NA,NA,NA,NA,NA,NA,NA,NA,NA,NA,I selected basked where both I and the character could see the ball in a basket. Where I could see the ball but he could not I just guessed. Where he could see the ball but I could not I just guessed.,67,Non-Hispanic,Male,White,0.5902777777777778,0.5902777777777778,eq6521xnmh
85,NA,NA,NA,NA,NA,survey-html-form,318,292236,0.0-293.0,52276,NA,"{""feedback"":""I looked at which baskets were visible by Sam and then whether or not I could see the ball put that info together and narrowed it down as much as possible."",""age"":""46"",""gender"":""Male"",""other_gender"":"""",""race"":""White"",""other_race"":"""",""ethnicity"":""Non-Hispanic""}",NA,exit_survey,NA,NA,NA,NA,NA,NA,NA,NA,NA,NA,NA,NA,NA,NA,NA,I looked at which baskets were visible by Sam and then whether or not I could see the ball put that info together and narrowed it down as much as possible.,46,Non-Hispanic,Male,White,0.6805555555555556,0.6805555555555556,erbdtf8zht
86,NA,NA,NA,NA,NA,survey-html-form,318,543347,0.0-293.0,41991,NA,"{""feedback"":""I had to stay focus on the ones that were obvious and the rest is guessing"",""age"":""33"",""gender"":""Female"",""other_gender"":"""",""race"":""White"",""other_race"":"""",""ethnicity"":""Hispanic""}",NA,exit_survey,NA,NA,NA,NA,NA,NA,NA,NA,NA,NA,NA,NA,NA,NA,NA,I had to stay focus on the ones that were obvious and the rest is guessing,33,Hispanic,Female,White,0.6180555555555556,0.6180555555555556,evjvu1d958
87,NA,NA,NA,NA,NA,survey-html-form,318,402893,0.0-293.0,24741,NA,"{""feedback"":""I just used my best judgement."",""age"":""24"",""gender"":""Female"",""other_gender"":"""",""race"":""Asian"",""other_race"":"""",""ethnicity"":""Non-Hispanic""}",NA,exit_survey,NA,NA,NA,NA,NA,NA,NA,NA,NA,NA,NA,NA,NA,NA,NA,I just used my best judgement.,24,Non-Hispanic,Female,Asian,0.5902777777777778,0.5902777777777778,f4mnmswkt3
88,NA,NA,NA,NA,NA,survey-html-form,318,624668,0.0-293.0,44922,NA,"{""feedback"":""Sometimes where i could see it and he couldnt sometimes just random"",""age"":""61"",""gender"":""Female"",""other_gender"":"""",""race"":""White"",""other_race"":"""",""ethnicity"":""Non-Hispanic""}",NA,exit_survey,NA,NA,NA,NA,NA,NA,NA,NA,NA,NA,NA,NA,NA,NA,NA,Sometimes where i could see it and he couldnt sometimes just random,61,Non-Hispanic,Female,White,0.5902777777777778,0.5902777777777778,f8vttqh6za
89,NA,NA,NA,NA,NA,survey-html-form,318,527091,0.0-293.0,47192,NA,"{""feedback"":""what he could see vs what I could see, not too many times in a row in the same spot"",""age"":""54"",""gender"":""Female"",""other_gender"":"""",""race"":""White"",""other_race"":"""",""ethnicity"":""Non-Hispanic""}",NA,exit_survey,NA,NA,NA,NA,NA,NA,NA,NA,NA,NA,NA,NA,NA,NA,NA,"what he could see vs what I could see, not too many times in a row in the same spot",54,Non-Hispanic,Female,White,0.6180555555555556,0.6180555555555556,fdm48s1qmg
90,NA,NA,NA,NA,NA,survey-html-form,345,604409,0.0-293.0,20648,NA,"{""feedback"":""Try to think what he would choose and not necessarily what I would choose."",""age"":""30"",""gender"":""Male"",""other_gender"":"""",""race"":""White"",""other_race"":"""",""ethnicity"":""Non-Hispanic""}",NA,exit_survey,NA,NA,NA,NA,NA,NA,NA,NA,NA,NA,NA,NA,NA,NA,NA,Try to think what he would choose and not necessarily what I would choose.,30,Non-Hispanic,Male,White,0.5833333333333334,0.5833333333333334,fn8uokf3bl
91,NA,NA,NA,NA,NA,survey-html-form,318,640627,0.0-293.0,204382,NA,"{""feedback"":""Well, when it was obvious that Sam could see the ball or see if the ball is not there, I just pick that option to where Sam could obviously guess or see the ball. When it was not obvious, some were randoms/instinct when I nor Sam could not see the ball. If I could see the ball but Sam can't and also can't tell if the ball is there, I tried to pick the best estimated guess.   "",""age"":""31"",""gender"":""Male"",""other_gender"":"""",""race"":""other_race"",""other_race"":""Mexican/Honduran-American"",""ethnicity"":""Hispanic""}",NA,exit_survey,NA,NA,NA,NA,NA,NA,NA,NA,NA,NA,NA,NA,NA,NA,NA,"Well, when it was obvious that Sam could see the ball or see if the ball is not there, I just pick that option to where Sam could obviously guess or see the ball. When it was not obvious, some were randoms/instinct when I nor Sam could not see the ball. If I could see the ball but Sam can't and also can't tell if the ball is there, I tried to pick the best estimated guess.",31,Hispanic,Male,Mexican/Honduran-American,0.625,0.625,fx7pdy7bga
92,NA,NA,NA,NA,NA,survey-html-form,318,1046848,0.0-293.0,111714,NA,"{""feedback"":""If Sam could see the ball then I definitely selected that option. Or if I could see that two of the baskets were empty I chose the third basket. "",""age"":""70"",""gender"":""Female"",""other_gender"":"""",""race"":""White"",""other_race"":"""",""ethnicity"":""Non-Hispanic""}",NA,exit_survey,NA,NA,NA,NA,NA,NA,NA,NA,NA,NA,NA,NA,NA,NA,NA,If Sam could see the ball then I definitely selected that option. Or if I could see that two of the baskets were empty I chose the third basket.,70,Non-Hispanic,Female,White,0.6527777777777778,0.6527777777777778,g049beue1l
93,NA,NA,NA,NA,NA,survey-html-form,318,686580,0.0-293.0,82307,NA,"{""feedback"":""Position of blinds and Sam's predilictions."",""age"":""57"",""gender"":""Male"",""other_gender"":"""",""race"":""White"",""other_race"":"""",""ethnicity"":""Non-Hispanic""}",NA,exit_survey,NA,NA,NA,NA,NA,NA,NA,NA,NA,NA,NA,NA,NA,NA,NA,Position of blinds and Sam's predilictions.,57,Non-Hispanic,Male,White,0.625,0.625,g8p8m4kk8n
94,NA,NA,NA,NA,NA,survey-html-form,318,363671,0.0-293.0,220147,NA,"{""feedback"":""none"",""age"":""30"",""gender"":""Female"",""other_gender"":"""",""race"":""White"",""other_race"":"""",""ethnicity"":""Non-Hispanic""}",NA,exit_survey,NA,NA,NA,NA,NA,NA,NA,NA,NA,NA,NA,NA,NA,NA,NA,none,30,Non-Hispanic,Female,White,0.4097222222222222,0.4097222222222222,gr40funhyq
95,NA,NA,NA,NA,NA,survey-html-form,318,475542,0.0-293.0,70323,NA,"{""feedback"":""If the red ball wasnt visible I just took a lucky guess."",""age"":""32"",""gender"":""Male"",""other_gender"":"""",""race"":""White"",""other_race"":"""",""ethnicity"":""Non-Hispanic""}",NA,exit_survey,NA,NA,NA,NA,NA,NA,NA,NA,NA,NA,NA,NA,NA,NA,NA,If the red ball wasnt visible I just took a lucky guess.,32,Non-Hispanic,Male,White,0.6527777777777778,0.6527777777777778,grxlz7cyag
96,NA,NA,NA,NA,NA,survey-html-form,318,631877,0.0-293.0,20829,NA,"{""feedback"":"""",""age"":""65"",""gender"":""Female"",""other_gender"":"""",""race"":""White"",""other_race"":"""",""ethnicity"":""Non-Hispanic""}",NA,exit_survey,NA,NA,NA,NA,NA,NA,NA,NA,NA,NA,NA,NA,NA,NA,NA,NA,65,Non-Hispanic,Female,White,0.6319444444444444,0.6319444444444444,h0ukz1cpno
97,NA,NA,NA,NA,NA,survey-html-form,318,437076,0.0-293.0,19752,NA,"{""feedback"":""merely guessing"",""age"":""59"",""gender"":""Female"",""other_gender"":"""",""race"":""American Indian/Alaska Native"",""other_race"":"""",""ethnicity"":""Non-Hispanic""}",NA,exit_survey,NA,NA,NA,NA,NA,NA,NA,NA,NA,NA,NA,NA,NA,NA,NA,merely guessing,59,Non-Hispanic,Female,American Indian/Alaska Native,0.6041666666666666,0.6041666666666666,h9o47fqt5n
98,NA,NA,NA,NA,NA,survey-html-form,318,470200,0.0-293.0,40680,NA,"{""feedback"":""I think it was kind of random what they selected when they couldn't know for sure,  so I kind of just followed my intuition and guessed."",""age"":""37"",""gender"":""Male"",""other_gender"":"""",""race"":""White"",""other_race"":"""",""ethnicity"":""Non-Hispanic""}",NA,exit_survey,NA,NA,NA,NA,NA,NA,NA,NA,NA,NA,NA,NA,NA,NA,NA,"I think it was kind of random what they selected when they couldn't know for sure,  so I kind of just followed my intuition and guessed.",37,Non-Hispanic,Male,White,0.6180555555555556,0.6180555555555556,hgy139n63q
99,NA,NA,NA,NA,NA,survey-html-form,318,604783,0.0-293.0,41819,NA,"{""feedback"":""try to understand the game."",""age"":""49"",""gender"":""Male"",""other_gender"":"""",""race"":""White"",""other_race"":"""",""ethnicity"":""Non-Hispanic""}",NA,exit_survey,NA,NA,NA,NA,NA,NA,NA,NA,NA,NA,NA,NA,NA,NA,NA,try to understand the game.,49,Non-Hispanic,Male,White,0.5069444444444444,0.5069444444444444,hha8rgjb0r
100,NA,NA,NA,NA,NA,survey-html-form,318,832348,0.0-293.0,113505,NA,"{""feedback"":""The factor was mainly my best guess as to which basket appeared, to Sam, to be the easiest choice or guess where the ball was located. "",""age"":""41"",""gender"":""Male"",""other_gender"":"""",""race"":""White"",""other_race"":"""",""ethnicity"":""Hispanic""}",NA,exit_survey,NA,NA,NA,NA,NA,NA,NA,NA,NA,NA,NA,NA,NA,NA,NA,"The factor was mainly my best guess as to which basket appeared, to Sam, to be the easiest choice or guess where the ball was located.",41,Hispanic,Male,White,0.6180555555555556,0.6180555555555556,hqjavtszws
101,NA,NA,NA,NA,NA,survey-html-form,318,781149,0.0-293.0,117595,NA,"{""feedback"":""I tried to respons based on the prior repones he chose. The hardest ones were where neither he or I could see the ball."",""age"":""43"",""gender"":""Female"",""other_gender"":"""",""race"":""Black/African American"",""other_race"":"""",""ethnicity"":""Non-Hispanic""}",NA,exit_survey,NA,NA,NA,NA,NA,NA,NA,NA,NA,NA,NA,NA,NA,NA,NA,I tried to respons based on the prior repones he chose. The hardest ones were where neither he or I could see the ball.,43,Non-Hispanic,Female,Black/African American,0.6180555555555556,0.6180555555555556,hqxovghkjx
102,NA,NA,NA,NA,NA,survey-html-form,318,702898,0.0-293.0,52287,NA,"{""feedback"":""I just picked the obvious choice and guessed the ones that were hidden."",""age"":""48"",""gender"":""Female"",""other_gender"":"""",""race"":""White"",""other_race"":"""",""ethnicity"":""Hispanic""}",NA,exit_survey,NA,NA,NA,NA,NA,NA,NA,NA,NA,NA,NA,NA,NA,NA,NA,I just picked the obvious choice and guessed the ones that were hidden.,48,Hispanic,Female,White,0.6736111111111112,0.6736111111111112,j042vwocmx
103,NA,NA,NA,NA,NA,survey-html-form,318,636121,0.0-293.0,21875,NA,"{""feedback"":""Just a guess"",""age"":""61"",""gender"":""Female"",""other_gender"":"""",""race"":""White"",""other_race"":"""",""ethnicity"":""Non-Hispanic""}",NA,exit_survey,NA,NA,NA,NA,NA,NA,NA,NA,NA,NA,NA,NA,NA,NA,NA,Just a guess,61,Non-Hispanic,Female,White,0.625,0.625,j0qmrp0rtl
104,NA,NA,NA,NA,NA,survey-html-form,318,552896,0.0-293.0,15117,NA,"{""feedback"":"""",""age"":""34"",""gender"":""Female"",""other_gender"":"""",""race"":""White"",""other_race"":"""",""ethnicity"":""Hispanic""}",NA,exit_survey,NA,NA,NA,NA,NA,NA,NA,NA,NA,NA,NA,NA,NA,NA,NA,NA,34,Hispanic,Female,White,0.6180555555555556,0.6180555555555556,j53v868mlc
105,NA,NA,NA,NA,NA,survey-html-form,318,332799,0.0-293.0,11906,NA,"{""feedback"":"""",""age"":""24"",""gender"":""Female"",""other_gender"":"""",""race"":""Asian"",""other_race"":"""",""ethnicity"":""Non-Hispanic""}",NA,exit_survey,NA,NA,NA,NA,NA,NA,NA,NA,NA,NA,NA,NA,NA,NA,NA,NA,24,Non-Hispanic,Female,Asian,0.6736111111111112,0.6736111111111112,jl7m0ybrh2
106,NA,NA,NA,NA,NA,survey-html-form,318,729812,0.0-293.0,17677,NA,"{""feedback"":"""",""age"":""37"",""gender"":""Female"",""other_gender"":"""",""race"":""White"",""other_race"":"""",""ethnicity"":""Non-Hispanic""}",NA,exit_survey,NA,NA,NA,NA,NA,NA,NA,NA,NA,NA,NA,NA,NA,NA,NA,NA,37,Non-Hispanic,Female,White,0.6388888888888888,0.6388888888888888,jqzwvknojn
108,NA,NA,NA,NA,NA,survey-html-form,318,786065,0.0-293.0,45315,NA,"{""feedback"":""Whether or not he could see the ball."",""age"":""35"",""gender"":""Male"",""other_gender"":"""",""race"":""White"",""other_race"":"""",""ethnicity"":""Non-Hispanic""}",NA,exit_survey,NA,NA,NA,NA,NA,NA,NA,NA,NA,NA,NA,NA,NA,NA,NA,Whether or not he could see the ball.,35,Non-Hispanic,Male,White,0.6388888888888888,0.6388888888888888,k80bd47p8e
109,NA,NA,NA,NA,NA,survey-html-form,318,679757,0.0-293.0,22081,NA,"{""feedback"":""Honestly, went with my gut. I couldn't find a pattern in what Sam decided to pick. So I just trusted my intuition and stuck with it."",""age"":""37"",""gender"":""Male"",""other_gender"":"""",""race"":""White"",""other_race"":"""",""ethnicity"":""Non-Hispanic""}",NA,exit_survey,NA,NA,NA,NA,NA,NA,NA,NA,NA,NA,NA,NA,NA,NA,NA,"Honestly, went with my gut. I couldn't find a pattern in what Sam decided to pick. So I just trusted my intuition and stuck with it.",37,Non-Hispanic,Male,White,0.5902777777777778,0.5902777777777778,kd174dvcl7
110,NA,NA,NA,NA,NA,survey-html-form,318,442644,0.0-293.0,48002,NA,"{""feedback"":""I thought about what Sam could see and then took a guess if he couldn't see the right one. I defaulted towards the middle answer. "",""age"":""27"",""gender"":""Female"",""other_gender"":"""",""race"":""White"",""other_race"":"""",""ethnicity"":""Non-Hispanic""}",NA,exit_survey,NA,NA,NA,NA,NA,NA,NA,NA,NA,NA,NA,NA,NA,NA,NA,I thought about what Sam could see and then took a guess if he couldn't see the right one. I defaulted towards the middle answer.,27,Non-Hispanic,Female,White,0.6805555555555556,0.6805555555555556,khznfvxnwo
111,NA,NA,NA,NA,NA,survey-html-form,318,743755,0.0-293.0,60242,NA,"{""feedback"":""Obvious was one way, just guessing is the rest. No routine developed."",""age"":""60"",""gender"":""Female"",""other_gender"":"""",""race"":""White"",""other_race"":"""",""ethnicity"":""Non-Hispanic""}",NA,exit_survey,NA,NA,NA,NA,NA,NA,NA,NA,NA,NA,NA,NA,NA,NA,NA,"Obvious was one way, just guessing is the rest. No routine developed.",60,Non-Hispanic,Female,White,0.6111111111111112,0.6111111111111112,kk26vb8sp1
112,NA,NA,NA,NA,NA,survey-html-form,318,308407,0.0-293.0,11778,NA,"{""feedback"":"""",""age"":""39"",""gender"":""Male"",""other_gender"":"""",""race"":""Multiracial"",""other_race"":"""",""ethnicity"":""Non-Hispanic""}",NA,exit_survey,NA,NA,NA,NA,NA,NA,NA,NA,NA,NA,NA,NA,NA,NA,NA,NA,39,Non-Hispanic,Male,Multiracial,0.6319444444444444,0.6319444444444444,kl64c5s94e
113,NA,NA,NA,NA,NA,survey-html-form,318,440318,0.0-293.0,38266,NA,"{""feedback"":""Kind of guessing, kind of trying to find a pattern"",""age"":""44"",""gender"":""Female"",""other_gender"":"""",""race"":""White"",""other_race"":"""",""ethnicity"":""Non-Hispanic""}",NA,exit_survey,NA,NA,NA,NA,NA,NA,NA,NA,NA,NA,NA,NA,NA,NA,NA,"Kind of guessing, kind of trying to find a pattern",44,Non-Hispanic,Female,White,0.6736111111111112,0.6736111111111112,ks7dpe4hm7
114,NA,NA,NA,NA,NA,survey-html-form,318,1097484,0.0-293.0,14894,NA,"{""feedback"":"""",""age"":""39"",""gender"":""Male"",""other_gender"":"""",""race"":""White"",""other_race"":"""",""ethnicity"":""Non-Hispanic""}",NA,exit_survey,NA,NA,NA,NA,NA,NA,NA,NA,NA,NA,NA,NA,NA,NA,NA,NA,39,Non-Hispanic,Male,White,0.5555555555555556,0.5555555555555556,ktgkw1n3ua
115,NA,NA,NA,NA,NA,survey-html-form,318,1064352,0.0-293.0,20903,NA,"{""feedback"":"""",""age"":""42"",""gender"":""Male"",""other_gender"":"""",""race"":""White"",""other_race"":"""",""ethnicity"":""Non-Hispanic""}",NA,exit_survey,NA,NA,NA,NA,NA,NA,NA,NA,NA,NA,NA,NA,NA,NA,NA,NA,42,Non-Hispanic,Male,White,0.7083333333333334,0.7083333333333334,l0t3hkvo5m
116,NA,NA,NA,NA,NA,survey-html-form,318,1419151,0.0-293.0,11959,NA,"{""feedback"":"""",""age"":""66"",""gender"":""Female"",""other_gender"":"""",""race"":""Black/African American"",""other_race"":"""",""ethnicity"":""Non-Hispanic""}",NA,exit_survey,NA,NA,NA,NA,NA,NA,NA,NA,NA,NA,NA,NA,NA,NA,NA,NA,66,Non-Hispanic,Female,Black/African American,0.5763888888888888,0.5763888888888888,l13hnrzq0b
117,NA,NA,NA,NA,NA,survey-html-form,345,600070,0.0-293.0,19447,NA,"{""feedback"":""What angles Sam could see the ball from."",""age"":""41"",""gender"":""Female"",""other_gender"":"""",""race"":""American Indian/Alaska Native"",""other_race"":"""",""ethnicity"":""Non-Hispanic""}",NA,exit_survey,NA,NA,NA,NA,NA,NA,NA,NA,NA,NA,NA,NA,NA,NA,NA,What angles Sam could see the ball from.,41,Non-Hispanic,Female,American Indian/Alaska Native,0.6597222222222222,0.6597222222222222,l2rc4m7xqo
118,NA,NA,NA,NA,NA,survey-html-form,318,579731,0.0-293.0,38654,NA,"{""feedback"":""Obvious when balls were visible to him; otherwise, guessing"",""age"":""55"",""gender"":""Female"",""other_gender"":"""",""race"":""White"",""other_race"":"""",""ethnicity"":""Non-Hispanic""}",NA,exit_survey,NA,NA,NA,NA,NA,NA,NA,NA,NA,NA,NA,NA,NA,NA,NA,"Obvious when balls were visible to him; otherwise, guessing",55,Non-Hispanic,Female,White,0.6319444444444444,0.6319444444444444,lg0d88ts39
119,NA,NA,NA,NA,NA,survey-html-form,345,246601,0.0-293.0,10039,NA,"{""feedback"":"""",""age"":""30"",""gender"":""Female"",""other_gender"":"""",""race"":""White"",""other_race"":"""",""ethnicity"":""Non-Hispanic""}",NA,exit_survey,NA,NA,NA,NA,NA,NA,NA,NA,NA,NA,NA,NA,NA,NA,NA,NA,30,Non-Hispanic,Female,White,0.6180555555555556,0.6180555555555556,ljefm38e9o
120,NA,NA,NA,NA,NA,survey-html-form,318,648919,0.0-293.0,10796,NA,"{""feedback"":"""",""age"":""36"",""gender"":""Male"",""other_gender"":"""",""race"":""White"",""other_race"":"""",""ethnicity"":""Non-Hispanic""}",NA,exit_survey,NA,NA,NA,NA,NA,NA,NA,NA,NA,NA,NA,NA,NA,NA,NA,NA,36,Non-Hispanic,Male,White,0.6388888888888888,0.6388888888888888,lvvj5p5cmg
121,NA,NA,NA,NA,NA,survey-html-form,318,507712,0.0-293.0,24181,NA,"{""feedback"":""I tried to choose based on what he could see."",""age"":""24"",""gender"":""Male"",""other_gender"":"""",""race"":""White"",""other_race"":"""",""ethnicity"":""Non-Hispanic""}",NA,exit_survey,NA,NA,NA,NA,NA,NA,NA,NA,NA,NA,NA,NA,NA,NA,NA,I tried to choose based on what he could see.,24,Non-Hispanic,Male,White,0.6111111111111112,0.6111111111111112,lx39us6stw
122,NA,NA,NA,NA,NA,survey-html-form,318,892482,0.0-293.0,25149,NA,"{""feedback"":""I saw patterns at times"",""age"":""60"",""gender"":""Female"",""other_gender"":"""",""race"":""White"",""other_race"":"""",""ethnicity"":""Non-Hispanic""}",NA,exit_survey,NA,NA,NA,NA,NA,NA,NA,NA,NA,NA,NA,NA,NA,NA,NA,I saw patterns at times,60,Non-Hispanic,Female,White,0.7013888888888888,0.7013888888888888,m2anure8o7
123,NA,NA,NA,NA,NA,survey-html-form,318,268939,0.0-293.0,15813,NA,"{""feedback"":"""",""age"":""35"",""gender"":""Male"",""other_gender"":"""",""race"":""White"",""other_race"":"""",""ethnicity"":""Non-Hispanic""}",NA,exit_survey,NA,NA,NA,NA,NA,NA,NA,NA,NA,NA,NA,NA,NA,NA,NA,NA,35,Non-Hispanic,Male,White,0.5555555555555556,0.5555555555555556,mh2np3sh9w
124,NA,NA,NA,NA,NA,survey-html-form,318,1125573,0.0-293.0,96734,NA,"{""feedback"":""If I could see the ball in the basket."",""age"":""66"",""gender"":""Female"",""other_gender"":"""",""race"":""White"",""other_race"":"""",""ethnicity"":""Non-Hispanic""}",NA,exit_survey,NA,NA,NA,NA,NA,NA,NA,NA,NA,NA,NA,NA,NA,NA,NA,If I could see the ball in the basket.,66,Non-Hispanic,Female,White,0.6180555555555556,0.6180555555555556,mnfut5cbvd
125,NA,NA,NA,NA,NA,survey-html-form,318,356400,0.0-293.0,17054,NA,"{""feedback"":""i went with my gut."",""age"":""45"",""gender"":""Male"",""other_gender"":"""",""race"":""White"",""other_race"":"""",""ethnicity"":""Non-Hispanic""}",NA,exit_survey,NA,NA,NA,NA,NA,NA,NA,NA,NA,NA,NA,NA,NA,NA,NA,i went with my gut.,45,Non-Hispanic,Male,White,0.6041666666666666,0.6041666666666666,mrsx0258vn
126,NA,NA,NA,NA,NA,survey-html-form,318,1773490,0.0-293.0,518974,NA,"{""feedback"":""When the ball was in a particular basket, Sam would often guess the same basket on the next turn when he could not see where it was. When it was in the same place twice I think he was less likely to guess the same one again on the next turn.\n\nI think he usually went from the right basket to the left one, but I may have forgotten now and have that backwards.\n\nWhen we both could see the ball the answer was obvious.\n\nWhen I could see it, but he could not, I had to remember that he might not necessarily choose the correct basket.\n\nwhen Sam could see it and I could not, I usually went with the place it was not before, thinking the computer would be more likely to place it there."",""age"":""51"",""gender"":""Male"",""other_gender"":"""",""race"":""White"",""other_race"":"""",""ethnicity"":""Non-Hispanic""}",NA,exit_survey,NA,NA,NA,NA,NA,NA,NA,NA,NA,NA,NA,NA,NA,NA,NA,"When the ball was in a particular basket, Sam would often guess the same basket on the next turn when he could not see where it was. When it was in the same place twice I think he was less likely to guess the same one again on the next turn.

I think he usually went from the right basket to the left one, but I may have forgotten now and have that backwards.

When we both could see the ball the answer was obvious.

When I could see it, but he could not, I had to remember that he might not necessarily choose the correct basket.

when Sam could see it and I could not, I usually went with the place it was not before, thinking the computer would be more likely to place it there.",51,Non-Hispanic,Male,White,0.6597222222222222,0.6597222222222222,mxnk0uta5l
127,NA,NA,NA,NA,NA,survey-html-form,318,665914,0.0-293.0,166020,NA,"{""feedback"":""I broke it down to whether he could see the basket and whether if I could see the basket, I put myself in Sam's shoes and my own and viewed each scenario from both points of view and chose accordingly. A lot of reasoning and deduction took place."",""age"":""32"",""gender"":""Male"",""other_gender"":"""",""race"":""Multiracial"",""other_race"":"""",""ethnicity"":""Non-Hispanic""}",NA,exit_survey,NA,NA,NA,NA,NA,NA,NA,NA,NA,NA,NA,NA,NA,NA,NA,"I broke it down to whether he could see the basket and whether if I could see the basket, I put myself in Sam's shoes and my own and viewed each scenario from both points of view and chose accordingly. A lot of reasoning and deduction took place.",32,Non-Hispanic,Male,Multiracial,0.6388888888888888,0.6388888888888888,myta2dudfe
128,NA,NA,NA,NA,NA,survey-html-form,318,1592347,0.0-293.0,27908,NA,"{""feedback"":""Attempted to find a pattern"",""age"":""59"",""gender"":""Male"",""other_gender"":"""",""race"":""Black/African American"",""other_race"":"""",""ethnicity"":""Non-Hispanic""}",NA,exit_survey,NA,NA,NA,NA,NA,NA,NA,NA,NA,NA,NA,NA,NA,NA,NA,Attempted to find a pattern,59,Non-Hispanic,Male,Black/African American,0.6111111111111112,0.6111111111111112,n35rpu9lzy
129,NA,NA,NA,NA,NA,survey-html-form,318,1314826,0.0-293.0,432268,NA,"{""feedback"":""Mainly, I was focused on whether the baskets were covered or not, either for me or Sam. Those decisions were easy. On the other hand, when I was not able to see the whole basket, than I gave it a guess. "",""age"":""60"",""gender"":""Male"",""other_gender"":"""",""race"":""White"",""other_race"":"""",""ethnicity"":""Non-Hispanic""}",NA,exit_survey,NA,NA,NA,NA,NA,NA,NA,NA,NA,NA,NA,NA,NA,NA,NA,"Mainly, I was focused on whether the baskets were covered or not, either for me or Sam. Those decisions were easy. On the other hand, when I was not able to see the whole basket, than I gave it a guess.",60,Non-Hispanic,Male,White,0.6041666666666666,0.6041666666666666,nfgh3r3vzo
130,NA,NA,NA,NA,NA,survey-html-form,318,586599,0.0-293.0,47414,NA,"{""feedback"":""I just looked at the pattern of what he might think based on where it had been previously."",""age"":""47"",""gender"":""Female"",""other_gender"":"""",""race"":""White"",""other_race"":"""",""ethnicity"":""Non-Hispanic""}",NA,exit_survey,NA,NA,NA,NA,NA,NA,NA,NA,NA,NA,NA,NA,NA,NA,NA,I just looked at the pattern of what he might think based on where it had been previously.,47,Non-Hispanic,Female,White,0.6388888888888888,0.6388888888888888,nuz82bw6yr
131,NA,NA,NA,NA,NA,survey-html-form,318,1063702,0.0-293.0,185273,NA,"{""feedback"":""I new which basket would be searched if Sam could see where the ball was or if he could see two empty baskets. If Sam couldn't see two or three baskets and one contained the ball the basket chosen would just be a random one he couldn't see. If I couldn't see the baskets I guessed Sam would be more likely to search a basket he could see."",""age"":""38"",""gender"":""Male"",""other_gender"":"""",""race"":""White"",""other_race"":"""",""ethnicity"":""Non-Hispanic""}",NA,exit_survey,NA,NA,NA,NA,NA,NA,NA,NA,NA,NA,NA,NA,NA,NA,NA,I new which basket would be searched if Sam could see where the ball was or if he could see two empty baskets. If Sam couldn't see two or three baskets and one contained the ball the basket chosen would just be a random one he couldn't see. If I couldn't see the baskets I guessed Sam would be more likely to search a basket he could see.,38,Non-Hispanic,Male,White,0.6041666666666666,0.6041666666666666,o4bua6uzes
132,NA,NA,NA,NA,NA,survey-html-form,318,397148,0.0-293.0,16277,NA,"{""feedback"":""just random"",""age"":""45"",""gender"":""Female"",""other_gender"":"""",""race"":""White"",""other_race"":"""",""ethnicity"":""Non-Hispanic""}",NA,exit_survey,NA,NA,NA,NA,NA,NA,NA,NA,NA,NA,NA,NA,NA,NA,NA,just random,45,Non-Hispanic,Female,White,0.6875,0.6875,penrx1u7qb
133,NA,NA,NA,NA,NA,survey-html-form,318,446687,0.0-293.0,37356,NA,"{""feedback"":""if I was able to see the ball versus if sam could see the ball"",""age"":""37"",""gender"":""Male"",""other_gender"":"""",""race"":""Black/African American"",""other_race"":"""",""ethnicity"":""Non-Hispanic""}",NA,exit_survey,NA,NA,NA,NA,NA,NA,NA,NA,NA,NA,NA,NA,NA,NA,NA,if I was able to see the ball versus if sam could see the ball,37,Non-Hispanic,Male,Black/African American,0.6597222222222222,0.6597222222222222,pnrkcd6smc
134,NA,NA,NA,NA,NA,survey-html-form,318,556112,0.0-293.0,23110,NA,"{""feedback"":""If I knew where it was it was easy, otherwise, I guessed"",""age"":""57"",""gender"":""Female"",""other_gender"":"""",""race"":""White"",""other_race"":"""",""ethnicity"":""Non-Hispanic""}",NA,exit_survey,NA,NA,NA,NA,NA,NA,NA,NA,NA,NA,NA,NA,NA,NA,NA,"If I knew where it was it was easy, otherwise, I guessed",57,Non-Hispanic,Female,White,0.5972222222222222,0.5972222222222222,pw6ogcz40j
135,NA,NA,NA,NA,NA,survey-html-form,318,1023754,0.0-293.0,61444,NA,"{""feedback"":""Well, if we both could see it then I picked that one.  I tried to discern a pattern but I'm not sure how successful I was in doing so."",""age"":""53"",""gender"":""Female"",""other_gender"":"""",""race"":""White"",""other_race"":"""",""ethnicity"":""Non-Hispanic""}",NA,exit_survey,NA,NA,NA,NA,NA,NA,NA,NA,NA,NA,NA,NA,NA,NA,NA,"Well, if we both could see it then I picked that one.  I tried to discern a pattern but I'm not sure how successful I was in doing so.",53,Non-Hispanic,Female,White,0.6597222222222222,0.6597222222222222,qlldmz7xfd
136,NA,NA,NA,NA,NA,survey-html-form,318,2174959,0.0-293.0,37862,NA,"{""feedback"":""I went with the ones I saw and the best prediction I could make for Sam."",""age"":""34"",""gender"":""Male"",""other_gender"":"""",""race"":""Black/African American"",""other_race"":"""",""ethnicity"":""Non-Hispanic""}",NA,exit_survey,NA,NA,NA,NA,NA,NA,NA,NA,NA,NA,NA,NA,NA,NA,NA,I went with the ones I saw and the best prediction I could make for Sam.,34,Non-Hispanic,Male,Black/African American,0.5694444444444444,0.5694444444444444,qor7edqfoz
137,NA,NA,NA,NA,NA,survey-html-form,318,218205,0.0-293.0,42859,NA,"{""feedback"":""I tried to focus on Sam's perspective when I could and guess to see if there was a pattern if the choice could have been 50/50"",""age"":""30"",""gender"":""Male"",""other_gender"":"""",""race"":""White"",""other_race"":"""",""ethnicity"":""Non-Hispanic""}",NA,exit_survey,NA,NA,NA,NA,NA,NA,NA,NA,NA,NA,NA,NA,NA,NA,NA,I tried to focus on Sam's perspective when I could and guess to see if there was a pattern if the choice could have been 50/50,30,Non-Hispanic,Male,White,0.5138888888888888,0.5138888888888888,r773dconjp
138,NA,NA,NA,NA,NA,survey-html-form,318,767822,0.0-293.0,46644,NA,"{""feedback"":""The placement of the blocks influenced how I responded sometimes.  I have no questions or comments."",""age"":""63"",""gender"":""Female"",""other_gender"":"""",""race"":""White"",""other_race"":"""",""ethnicity"":""Non-Hispanic""}",NA,exit_survey,NA,NA,NA,NA,NA,NA,NA,NA,NA,NA,NA,NA,NA,NA,NA,The placement of the blocks influenced how I responded sometimes.  I have no questions or comments.,63,Non-Hispanic,Female,White,0.5972222222222222,0.5972222222222222,re3vc5u0yx
139,NA,NA,NA,NA,NA,survey-html-form,318,409856,0.0-293.0,19850,NA,"{""feedback"":""Just guessing best I could."",""age"":""65"",""gender"":""Female"",""other_gender"":"""",""race"":""White"",""other_race"":"""",""ethnicity"":""Non-Hispanic""}",NA,exit_survey,NA,NA,NA,NA,NA,NA,NA,NA,NA,NA,NA,NA,NA,NA,NA,Just guessing best I could.,65,Non-Hispanic,Female,White,0.6666666666666666,0.6666666666666666,rouxxa73y1
140,NA,NA,NA,NA,NA,survey-html-form,318,973793,0.0-293.0,123205,NA,"{""feedback"":""Nothing specifically, I just tried to make the best possible choice randomly."",""age"":""37"",""gender"":""Female"",""other_gender"":"""",""race"":""Black/African American"",""other_race"":"""",""ethnicity"":""Non-Hispanic""}",NA,exit_survey,NA,NA,NA,NA,NA,NA,NA,NA,NA,NA,NA,NA,NA,NA,NA,"Nothing specifically, I just tried to make the best possible choice randomly.",37,Non-Hispanic,Female,Black/African American,0.6944444444444444,0.6944444444444444,rpgm1jnoa0
141,NA,NA,NA,NA,NA,survey-html-form,318,483404,0.0-293.0,106499,NA,"{""feedback"":""If the ball was visible then it was an obvious choice. Also used process of elimination when appropriate. Otherwise, I took a guess based on Sam's prior choices."",""age"":""39"",""gender"":""Male"",""other_gender"":"""",""race"":""Black/African American"",""other_race"":"""",""ethnicity"":""Non-Hispanic""}",NA,exit_survey,NA,NA,NA,NA,NA,NA,NA,NA,NA,NA,NA,NA,NA,NA,NA,"If the ball was visible then it was an obvious choice. Also used process of elimination when appropriate. Otherwise, I took a guess based on Sam's prior choices.",39,Non-Hispanic,Male,Black/African American,0.625,0.625,rr7faa99km
142,NA,NA,NA,NA,NA,survey-html-form,318,529312,0.0-293.0,80222,NA,"{""feedback"":""I based it off of what he could see. If I couldn't see 2 or more baskets, I just chose randomly."",""age"":""37"",""gender"":""Male"",""other_gender"":"""",""race"":""White"",""other_race"":"""",""ethnicity"":""Non-Hispanic""}",NA,exit_survey,NA,NA,NA,NA,NA,NA,NA,NA,NA,NA,NA,NA,NA,NA,NA,"I based it off of what he could see. If I couldn't see 2 or more baskets, I just chose randomly.",37,Non-Hispanic,Male,White,0.6666666666666666,0.6666666666666666,rtg29lpd2a
143,NA,NA,NA,NA,NA,survey-html-form,318,369492,0.0-293.0,21297,NA,"{""feedback"":""If same could see the ball or not."",""age"":""41"",""gender"":""Female"",""other_gender"":"""",""race"":""White"",""other_race"":"""",""ethnicity"":""Non-Hispanic""}",NA,exit_survey,NA,NA,NA,NA,NA,NA,NA,NA,NA,NA,NA,NA,NA,NA,NA,If same could see the ball or not.,41,Non-Hispanic,Female,White,0.5763888888888888,0.5763888888888888,sb0he12eag
144,NA,NA,NA,NA,NA,survey-html-form,318,368102,0.0-293.0,7756,NA,"{""feedback"":"""",""age"":""37"",""gender"":""Female"",""other_gender"":"""",""race"":""White"",""other_race"":"""",""ethnicity"":""Non-Hispanic""}",NA,exit_survey,NA,NA,NA,NA,NA,NA,NA,NA,NA,NA,NA,NA,NA,NA,NA,NA,37,Non-Hispanic,Female,White,0.6388888888888888,0.6388888888888888,sfcqtbap3j
145,NA,NA,NA,NA,NA,survey-html-form,318,671740,0.0-293.0,50645,NA,"{""feedback"":""I tried to stick with where I saw the ball going and give my best guess as to where Sam would pick when he was unable to see."",""age"":""34"",""gender"":""Female"",""other_gender"":"""",""race"":""Black/African American"",""other_race"":"""",""ethnicity"":""Non-Hispanic""}",NA,exit_survey,NA,NA,NA,NA,NA,NA,NA,NA,NA,NA,NA,NA,NA,NA,NA,I tried to stick with where I saw the ball going and give my best guess as to where Sam would pick when he was unable to see.,34,Non-Hispanic,Female,Black/African American,0.6458333333333334,0.6458333333333334,spjreu25vs
146,NA,NA,NA,NA,NA,survey-html-form,318,444013,0.0-293.0,47552,NA,"{""feedback"":""If I could see the ball, if he could see the ball, how many were covered, like process of elimination, if you could see two and they were empty and he could also see those two, it could only be one, even if it was double blind."",""age"":""34"",""gender"":""Female"",""other_gender"":"""",""race"":""White"",""other_race"":"""",""ethnicity"":""Non-Hispanic""}",NA,exit_survey,NA,NA,NA,NA,NA,NA,NA,NA,NA,NA,NA,NA,NA,NA,NA,"If I could see the ball, if he could see the ball, how many were covered, like process of elimination, if you could see two and they were empty and he could also see those two, it could only be one, even if it was double blind.",34,Non-Hispanic,Female,White,0.6388888888888888,0.6388888888888888,sra479gt9c
147,NA,NA,NA,NA,NA,survey-html-form,318,500121,0.0-293.0,36536,NA,"{""feedback"":""What was hidden or visible"",""age"":""56"",""gender"":""Male"",""other_gender"":"""",""race"":""White"",""other_race"":"""",""ethnicity"":""Non-Hispanic""}",NA,exit_survey,NA,NA,NA,NA,NA,NA,NA,NA,NA,NA,NA,NA,NA,NA,NA,What was hidden or visible,56,Non-Hispanic,Male,White,0.6527777777777778,0.6527777777777778,srl0ussgbm
148,NA,NA,NA,NA,NA,survey-html-form,318,478467,0.0-293.0,19967,NA,"{""feedback"":""All guesses"",""age"":""46"",""gender"":""Female"",""other_gender"":"""",""race"":""White"",""other_race"":"""",""ethnicity"":""Non-Hispanic""}",NA,exit_survey,NA,NA,NA,NA,NA,NA,NA,NA,NA,NA,NA,NA,NA,NA,NA,All guesses,46,Non-Hispanic,Female,White,0.6458333333333334,0.6458333333333334,ssrtzrxagk
149,NA,NA,NA,NA,NA,survey-html-form,318,737344,0.0-293.0,28352,NA,"{""feedback"":""Intuition and random distribution."",""age"":""51"",""gender"":""Female"",""other_gender"":"""",""race"":""White"",""other_race"":"""",""ethnicity"":""Non-Hispanic""}",NA,exit_survey,NA,NA,NA,NA,NA,NA,NA,NA,NA,NA,NA,NA,NA,NA,NA,Intuition and random distribution.,51,Non-Hispanic,Female,White,0.6597222222222222,0.6597222222222222,st8ke8fyy8
150,NA,NA,NA,NA,NA,survey-html-form,318,322352,0.0-293.0,29934,NA,"{""feedback"":""If Sam could see 1, 2 or all 3 of the balls."",""age"":""35"",""gender"":""Male"",""other_gender"":"""",""race"":""White"",""other_race"":"""",""ethnicity"":""Non-Hispanic""}",NA,exit_survey,NA,NA,NA,NA,NA,NA,NA,NA,NA,NA,NA,NA,NA,NA,NA,"If Sam could see 1, 2 or all 3 of the balls.",35,Non-Hispanic,Male,White,0.6666666666666666,0.6666666666666666,t26auxa2vc
151,NA,NA,NA,NA,NA,survey-html-form,318,925010,0.0-293.0,46625,NA,"{""feedback"":""when it was clear i picked coorectly if i could not determine i guessed"",""age"":""54"",""gender"":""Female"",""other_gender"":"""",""race"":""White"",""other_race"":"""",""ethnicity"":""Non-Hispanic""}",NA,exit_survey,NA,NA,NA,NA,NA,NA,NA,NA,NA,NA,NA,NA,NA,NA,NA,when it was clear i picked coorectly if i could not determine i guessed,54,Non-Hispanic,Female,White,0.6458333333333334,0.6458333333333334,t2elun5uf5
152,NA,NA,NA,NA,NA,survey-html-form,318,558840,0.0-293.0,27131,NA,"{""feedback"":""random guess"",""age"":""25"",""gender"":""Female"",""other_gender"":"""",""race"":""Black/African American"",""other_race"":"""",""ethnicity"":""Non-Hispanic""}",NA,exit_survey,NA,NA,NA,NA,NA,NA,NA,NA,NA,NA,NA,NA,NA,NA,NA,random guess,25,Non-Hispanic,Female,Black/African American,0.6597222222222222,0.6597222222222222,t3y4h4pr5t
153,NA,NA,NA,NA,NA,survey-html-form,318,769024,0.0-293.0,640308,NA,"{""feedback"":""i just went with whatever basket may be chosen. it is pretty hard to get every single one right, i just had to make an educated guess."",""age"":""25"",""gender"":""Male"",""other_gender"":"""",""race"":""Native Hawaiian/Pacific Islander"",""other_race"":"""",""ethnicity"":""Non-Hispanic""}",NA,exit_survey,NA,NA,NA,NA,NA,NA,NA,NA,NA,NA,NA,NA,NA,NA,NA,"i just went with whatever basket may be chosen. it is pretty hard to get every single one right, i just had to make an educated guess.",25,Non-Hispanic,Male,Native Hawaiian/Pacific Islander,0.3194444444444444,0.3194444444444444,t6hx7ygtdh
154,NA,NA,NA,NA,NA,survey-html-form,318,605481,0.0-293.0,14346,NA,"{""feedback"":"""",""age"":""49"",""gender"":""Female"",""other_gender"":"""",""race"":""Black/African American"",""other_race"":"""",""ethnicity"":""Non-Hispanic""}",NA,exit_survey,NA,NA,NA,NA,NA,NA,NA,NA,NA,NA,NA,NA,NA,NA,NA,NA,49,Non-Hispanic,Female,Black/African American,0.6527777777777778,0.6527777777777778,tbxfjlcwp3
155,NA,NA,NA,NA,NA,survey-html-form,318,752397,0.0-293.0,37208,NA,"{""feedback"":""just guess"",""age"":""49"",""gender"":""Female"",""other_gender"":"""",""race"":""Black/African American"",""other_race"":"""",""ethnicity"":""Non-Hispanic""}",NA,exit_survey,NA,NA,NA,NA,NA,NA,NA,NA,NA,NA,NA,NA,NA,NA,NA,just guess,49,Non-Hispanic,Female,Black/African American,0.6388888888888888,0.6388888888888888,tehosqu2gm
156,NA,NA,NA,NA,NA,survey-html-form,318,465796,0.0-293.0,16974,NA,"{""feedback"":"""",""age"":""53"",""gender"":""Female"",""other_gender"":"""",""race"":""White"",""other_race"":"""",""ethnicity"":""Non-Hispanic""}",NA,exit_survey,NA,NA,NA,NA,NA,NA,NA,NA,NA,NA,NA,NA,NA,NA,NA,NA,53,Non-Hispanic,Female,White,0.5902777777777778,0.5902777777777778,tswd0glqtc
157,NA,NA,NA,NA,NA,survey-html-form,318,641610,0.0-293.0,96734,NA,"{""feedback"":""I chose my boxes based upon whether or not any of the three choices had the ball distinctly visible for either of us.\n\nI do not have any questions nor any comments about the experiment."",""age"":""36"",""gender"":""Male"",""other_gender"":"""",""race"":""White"",""other_race"":"""",""ethnicity"":""Non-Hispanic""}",NA,exit_survey,NA,NA,NA,NA,NA,NA,NA,NA,NA,NA,NA,NA,NA,NA,NA,"I chose my boxes based upon whether or not any of the three choices had the ball distinctly visible for either of us.

I do not have any questions nor any comments about the experiment.",36,Non-Hispanic,Male,White,0.6388888888888888,0.6388888888888888,tu1pslh7tu
158,NA,NA,NA,NA,NA,survey-html-form,318,831011,0.0-293.0,58549,NA,"{""feedback"":""I tried to see if Sam preferred a certain side when a guess was necessary."",""age"":""26"",""gender"":""Male"",""other_gender"":"""",""race"":""White"",""other_race"":"""",""ethnicity"":""Hispanic""}",NA,exit_survey,NA,NA,NA,NA,NA,NA,NA,NA,NA,NA,NA,NA,NA,NA,NA,I tried to see if Sam preferred a certain side when a guess was necessary.,26,Hispanic,Male,White,0.6666666666666666,0.6666666666666666,tuax8ku8kj
159,NA,NA,NA,NA,NA,survey-html-form,318,415986,0.0-293.0,24153,NA,"{""feedback"":""if sam could see the basket or not"",""age"":""38"",""gender"":""Male"",""other_gender"":"""",""race"":""White"",""other_race"":"""",""ethnicity"":""Non-Hispanic""}",NA,exit_survey,NA,NA,NA,NA,NA,NA,NA,NA,NA,NA,NA,NA,NA,NA,NA,if sam could see the basket or not,38,Non-Hispanic,Male,White,0.6041666666666666,0.6041666666666666,tveql67g6q
160,NA,NA,NA,NA,NA,survey-html-form,318,965600,0.0-293.0,53657,NA,"{""feedback"":""I generally went with where the red ball is. Sometimes if Sam had two choices I'd select the non-ball basket."",""age"":""31"",""gender"":""Male"",""other_gender"":"""",""race"":""Asian"",""other_race"":"""",""ethnicity"":""Non-Hispanic""}",NA,exit_survey,NA,NA,NA,NA,NA,NA,NA,NA,NA,NA,NA,NA,NA,NA,NA,I generally went with where the red ball is. Sometimes if Sam had two choices I'd select the non-ball basket.,31,Non-Hispanic,Male,Asian,0.5694444444444444,0.5694444444444444,u32yzwhawn
161,NA,NA,NA,NA,NA,survey-html-form,318,396107,0.0-293.0,58278,NA,"{""feedback"":""The main factor was whether or not Sam was capable of seeing the ball or not. If not, I had to randomly guess which unseen basket he would pick from."",""age"":""39"",""gender"":""Male"",""other_gender"":"""",""race"":""White"",""other_race"":"""",""ethnicity"":""Non-Hispanic""}",NA,exit_survey,NA,NA,NA,NA,NA,NA,NA,NA,NA,NA,NA,NA,NA,NA,NA,"The main factor was whether or not Sam was capable of seeing the ball or not. If not, I had to randomly guess which unseen basket he would pick from.",39,Non-Hispanic,Male,White,0.6527777777777778,0.6527777777777778,u38tjlnlbf
162,NA,NA,NA,NA,NA,survey-html-form,318,593295,0.0-293.0,17343,NA,"{""feedback"":""no questions or comments"",""age"":""38"",""gender"":""Female"",""other_gender"":"""",""race"":""Black/African American"",""other_race"":"""",""ethnicity"":""Non-Hispanic""}",NA,exit_survey,NA,NA,NA,NA,NA,NA,NA,NA,NA,NA,NA,NA,NA,NA,NA,no questions or comments,38,Non-Hispanic,Female,Black/African American,0.6805555555555556,0.6805555555555556,u3hyf0mudw
163,NA,NA,NA,NA,NA,survey-html-form,318,700328,0.0-293.0,60041,NA,"{""feedback"":""Deduction first and then tried to predict a pattern in his choices."",""age"":""59"",""gender"":""Male"",""other_gender"":"""",""race"":""White"",""other_race"":"""",""ethnicity"":""Non-Hispanic""}",NA,exit_survey,NA,NA,NA,NA,NA,NA,NA,NA,NA,NA,NA,NA,NA,NA,NA,Deduction first and then tried to predict a pattern in his choices.,59,Non-Hispanic,Male,White,0.625,0.625,ub68g49e9v
164,NA,NA,NA,NA,NA,survey-html-form,345,597638,0.0-293.0,38194,NA,"{""feedback"":""why were my arrow keys acting screwy?"",""age"":""74"",""gender"":""Female"",""other_gender"":"""",""race"":""White"",""other_race"":"""",""ethnicity"":""Non-Hispanic""}",NA,exit_survey,NA,NA,NA,NA,NA,NA,NA,NA,NA,NA,NA,NA,NA,NA,NA,why were my arrow keys acting screwy?,74,Non-Hispanic,Female,White,0.6180555555555556,0.6180555555555556,ujltyrtbr8
165,NA,NA,NA,NA,NA,survey-html-form,318,479152,0.0-293.0,130274,NA,"{""feedback"":""I responded based on what I felt was next based of my own predictions, and interpretation. "",""age"":""31"",""gender"":""Male"",""other_gender"":"""",""race"":""Black/African American"",""other_race"":"""",""ethnicity"":""Non-Hispanic""}",NA,exit_survey,NA,NA,NA,NA,NA,NA,NA,NA,NA,NA,NA,NA,NA,NA,NA,"I responded based on what I felt was next based of my own predictions, and interpretation.",31,Non-Hispanic,Male,Black/African American,0.5902777777777778,0.5902777777777778,umt6p2uhfa
166,NA,NA,NA,NA,NA,survey-html-form,318,323526,0.0-293.0,7020,NA,"{""feedback"":"""",""age"":""35"",""gender"":""Male"",""other_gender"":"""",""race"":""White"",""other_race"":"""",""ethnicity"":""Non-Hispanic""}",NA,exit_survey,NA,NA,NA,NA,NA,NA,NA,NA,NA,NA,NA,NA,NA,NA,NA,NA,35,Non-Hispanic,Male,White,0.6736111111111112,0.6736111111111112,utmlbchh7z
167,NA,NA,NA,NA,NA,survey-html-form,345,995611,0.0-293.0,155337,NA,"{""feedback"":""If Sam could see the ball, I was able to guess his choice, but if not, I just guessed it."",""age"":""39"",""gender"":""Male"",""other_gender"":"""",""race"":""White"",""other_race"":"""",""ethnicity"":""Non-Hispanic""}",NA,exit_survey,NA,NA,NA,NA,NA,NA,NA,NA,NA,NA,NA,NA,NA,NA,NA,"If Sam could see the ball, I was able to guess his choice, but if not, I just guessed it.",39,Non-Hispanic,Male,White,0.6666666666666666,0.6666666666666666,uw7x310n12
168,NA,NA,NA,NA,NA,survey-html-form,318,558731,0.0-293.0,55990,NA,"{""feedback"":""Clearly if we could both tell, it was easy to decide. I sought to find a pattern, but Sam did not have one."",""age"":""55"",""gender"":""Male"",""other_gender"":"""",""race"":""White"",""other_race"":"""",""ethnicity"":""Non-Hispanic""}",NA,exit_survey,NA,NA,NA,NA,NA,NA,NA,NA,NA,NA,NA,NA,NA,NA,NA,"Clearly if we could both tell, it was easy to decide. I sought to find a pattern, but Sam did not have one.",55,Non-Hispanic,Male,White,0.5763888888888888,0.5763888888888888,uxp3u30ahz
169,NA,NA,NA,NA,NA,survey-html-form,318,554024,0.0-293.0,23085,NA,"{""feedback"":""no"",""age"":""29"",""gender"":""Female"",""other_gender"":"""",""race"":""White"",""other_race"":"""",""ethnicity"":""Non-Hispanic""}",NA,exit_survey,NA,NA,NA,NA,NA,NA,NA,NA,NA,NA,NA,NA,NA,NA,NA,no,29,Non-Hispanic,Female,White,0.625,0.625,vh887ke42w
170,NA,NA,NA,NA,NA,survey-html-form,318,348598,0.0-293.0,10276,NA,"{""feedback"":""None"",""age"":""33"",""gender"":""Male"",""other_gender"":"""",""race"":""Asian"",""other_race"":"""",""ethnicity"":""Non-Hispanic""}",NA,exit_survey,NA,NA,NA,NA,NA,NA,NA,NA,NA,NA,NA,NA,NA,NA,NA,None,33,Non-Hispanic,Male,Asian,0.6805555555555556,0.6805555555555556,vo04zlxvjn
171,NA,NA,NA,NA,NA,survey-html-form,318,283801,0.0-293.0,26227,NA,"{""feedback"":""No questions or comments, good study!"",""age"":""23"",""gender"":""Male"",""other_gender"":"""",""race"":""White"",""other_race"":"""",""ethnicity"":""Non-Hispanic""}",NA,exit_survey,NA,NA,NA,NA,NA,NA,NA,NA,NA,NA,NA,NA,NA,NA,NA,"No questions or comments, good study!",23,Non-Hispanic,Male,White,0.6388888888888888,0.6388888888888888,vohlhgl4yp
172,NA,NA,NA,NA,NA,survey-html-form,399,615959,0.0-293.0,70346,NA,"{""feedback"":""The arrows did not always end up where the arrows pointed. Sometimes the middle one went right or left and the same happened with other buttons."",""age"":""45"",""gender"":""Female"",""other_gender"":"""",""race"":""White"",""other_race"":"""",""ethnicity"":""Non-Hispanic""}",NA,exit_survey,NA,NA,NA,NA,NA,NA,NA,NA,NA,NA,NA,NA,NA,NA,NA,The arrows did not always end up where the arrows pointed. Sometimes the middle one went right or left and the same happened with other buttons.,45,Non-Hispanic,Female,White,0.6458333333333334,0.6458333333333334,w1std5s8pp
173,NA,NA,NA,NA,NA,survey-html-form,318,545345,0.0-293.0,36468,NA,"{""feedback"":""Whether Sam could likely deduce where the ball was or if Sam could obviously see the ball."",""age"":""45"",""gender"":""Female"",""other_gender"":"""",""race"":""White"",""other_race"":"""",""ethnicity"":""Non-Hispanic""}",NA,exit_survey,NA,NA,NA,NA,NA,NA,NA,NA,NA,NA,NA,NA,NA,NA,NA,Whether Sam could likely deduce where the ball was or if Sam could obviously see the ball.,45,Non-Hispanic,Female,White,0.5972222222222222,0.5972222222222222,w9rldfhw39
174,NA,NA,NA,NA,NA,survey-html-form,318,578158,0.0-293.0,34616,NA,"{""feedback"":""Sometimes, it was easy to see where the ball was an other times it was inferred."",""age"":""48"",""gender"":""Female"",""other_gender"":"""",""race"":""Black/African American"",""other_race"":"""",""ethnicity"":""Non-Hispanic""}",NA,exit_survey,NA,NA,NA,NA,NA,NA,NA,NA,NA,NA,NA,NA,NA,NA,NA,"Sometimes, it was easy to see where the ball was an other times it was inferred.",48,Non-Hispanic,Female,Black/African American,0.6597222222222222,0.6597222222222222,wcxyzrg3ns
175,NA,NA,NA,NA,NA,survey-html-form,318,521367,0.0-293.0,17029,NA,"{""feedback"":""I tried to follow the pattern "",""age"":""57"",""gender"":""Female"",""other_gender"":"""",""race"":""Asian"",""other_race"":"""",""ethnicity"":""Non-Hispanic""}",NA,exit_survey,NA,NA,NA,NA,NA,NA,NA,NA,NA,NA,NA,NA,NA,NA,NA,I tried to follow the pattern,57,Non-Hispanic,Female,Asian,0.5763888888888888,0.5763888888888888,wgkjkg49c5
176,NA,NA,NA,NA,NA,survey-html-form,318,227366,0.0-293.0,10827,NA,"{""feedback"":""N/A"",""age"":""31"",""gender"":""Female"",""other_gender"":"""",""race"":""White"",""other_race"":"""",""ethnicity"":""Non-Hispanic""}",NA,exit_survey,NA,NA,NA,NA,NA,NA,NA,NA,NA,NA,NA,NA,NA,NA,NA,N/A,31,Non-Hispanic,Female,White,0.6041666666666666,0.6041666666666666,wjrnc8nxau
177,NA,NA,NA,NA,NA,survey-html-form,318,409928,0.0-293.0,39169,NA,"{""feedback"":""In some cases, it was obvious where the ball was. In others, I had to just guess."",""age"":""38"",""gender"":""Male"",""other_gender"":"""",""race"":""White"",""other_race"":"""",""ethnicity"":""Non-Hispanic""}",NA,exit_survey,NA,NA,NA,NA,NA,NA,NA,NA,NA,NA,NA,NA,NA,NA,NA,"In some cases, it was obvious where the ball was. In others, I had to just guess.",38,Non-Hispanic,Male,White,0.6527777777777778,0.6527777777777778,wlsoq4lbn4
178,NA,NA,NA,NA,NA,survey-html-form,318,610777,0.0-293.0,21951,NA,"{""feedback"":""If I saw the ball."",""age"":""60"",""gender"":""Female"",""other_gender"":"""",""race"":""White"",""other_race"":"""",""ethnicity"":""Non-Hispanic""}",NA,exit_survey,NA,NA,NA,NA,NA,NA,NA,NA,NA,NA,NA,NA,NA,NA,NA,If I saw the ball.,60,Non-Hispanic,Female,White,0.6319444444444444,0.6319444444444444,wtszl3q9x4
179,NA,NA,NA,NA,NA,survey-html-form,318,815316,0.0-293.0,21750,NA,"{""feedback"":""just random"",""age"":""71"",""gender"":""Female"",""other_gender"":"""",""race"":""White"",""other_race"":""""}",NA,exit_survey,NA,NA,NA,NA,NA,NA,NA,NA,NA,NA,NA,NA,NA,NA,NA,just random,71,NA,Female,White,0.6041666666666666,0.6041666666666666,wv4y660e5g
180,NA,NA,NA,NA,NA,survey-html-form,318,300260,0.0-293.0,8757,NA,"{""feedback"":"""",""age"":""22"",""gender"":""Male"",""other_gender"":"""",""race"":""White"",""other_race"":"""",""ethnicity"":""Non-Hispanic""}",NA,exit_survey,NA,NA,NA,NA,NA,NA,NA,NA,NA,NA,NA,NA,NA,NA,NA,NA,22,Non-Hispanic,Male,White,0.6111111111111112,0.6111111111111112,x0hlurqasv
181,NA,NA,NA,NA,NA,survey-html-form,318,737540,0.0-293.0,27840,NA,"{""feedback"":""If it was hidden I just guessed"",""age"":""32"",""gender"":""Male"",""other_gender"":"""",""race"":""White"",""other_race"":"""",""ethnicity"":""Non-Hispanic""}",NA,exit_survey,NA,NA,NA,NA,NA,NA,NA,NA,NA,NA,NA,NA,NA,NA,NA,If it was hidden I just guessed,32,Non-Hispanic,Male,White,0.4930555555555556,0.4930555555555556,x6k951ehzh
182,NA,NA,NA,NA,NA,survey-html-form,318,882094,0.0-293.0,120593,NA,"{""feedback"":""Some were pretty obvious, since either Sam could see the ball, or see where it wasn't. I never figured out if there was a pattern to the choices, although sometimes, if the ball was found in a particular basket, Sam would choose that one multiple times in a row."",""age"":""65"",""gender"":""Female"",""other_gender"":"""",""race"":""White"",""other_race"":"""",""ethnicity"":""Non-Hispanic""}",NA,exit_survey,NA,NA,NA,NA,NA,NA,NA,NA,NA,NA,NA,NA,NA,NA,NA,"Some were pretty obvious, since either Sam could see the ball, or see where it wasn't. I never figured out if there was a pattern to the choices, although sometimes, if the ball was found in a particular basket, Sam would choose that one multiple times in a row.",65,Non-Hispanic,Female,White,0.6805555555555556,0.6805555555555556,x6ulbmfs8n
183,NA,NA,NA,NA,NA,survey-html-form,318,755369,0.0-293.0,64570,NA,"{""feedback"":""I noticed that he favored the center spot when they were all covered."",""age"":""62"",""gender"":""Female"",""other_gender"":"""",""race"":""White"",""other_race"":"""",""ethnicity"":""Non-Hispanic""}",NA,exit_survey,NA,NA,NA,NA,NA,NA,NA,NA,NA,NA,NA,NA,NA,NA,NA,I noticed that he favored the center spot when they were all covered.,62,Non-Hispanic,Female,White,0.6666666666666666,0.6666666666666666,xmotkc2x8d
184,NA,NA,NA,NA,NA,survey-html-form,318,726859,0.0-293.0,59612,NA,"{""feedback"":""Whether I could see the ball and if Sam could see it. If neither of us could see it, it was just a random guess."",""age"":""32"",""gender"":""Male"",""other_gender"":"""",""race"":""White"",""other_race"":"""",""ethnicity"":""Non-Hispanic""}",NA,exit_survey,NA,NA,NA,NA,NA,NA,NA,NA,NA,NA,NA,NA,NA,NA,NA,"Whether I could see the ball and if Sam could see it. If neither of us could see it, it was just a random guess.",32,Non-Hispanic,Male,White,0.6319444444444444,0.6319444444444444,xxtgw93aoc
185,NA,NA,NA,NA,NA,survey-html-form,318,1773128,0.0-293.0,16945,NA,"{""feedback"":"""",""age"":""27"",""gender"":""Female"",""other_gender"":"""",""race"":""Black/African American"",""other_race"":"""",""ethnicity"":""Non-Hispanic""}",NA,exit_survey,NA,NA,NA,NA,NA,NA,NA,NA,NA,NA,NA,NA,NA,NA,NA,NA,27,Non-Hispanic,Female,Black/African American,0.5902777777777778,0.5902777777777778,y2u27gp0xo
186,NA,NA,NA,NA,NA,survey-html-form,318,502161,0.0-293.0,39073,NA,"{""feedback"":""Whether the ball was visible to him.  If not, I chose the middle option."",""age"":""49"",""gender"":""Female"",""other_gender"":"""",""race"":""White"",""other_race"":"""",""ethnicity"":""Non-Hispanic""}",NA,exit_survey,NA,NA,NA,NA,NA,NA,NA,NA,NA,NA,NA,NA,NA,NA,NA,"Whether the ball was visible to him.  If not, I chose the middle option.",49,Non-Hispanic,Female,White,0.5972222222222222,0.5972222222222222,y58sw6o0z0
187,NA,NA,NA,NA,NA,survey-html-form,318,779849,0.0-293.0,53856,NA,"{""feedback"":""If it was not an obvious guess then I randomly picked what Sam may picked."",""age"":""30"",""gender"":""Male"",""other_gender"":"""",""race"":""Black/African American"",""other_race"":"""",""ethnicity"":""Non-Hispanic""}",NA,exit_survey,NA,NA,NA,NA,NA,NA,NA,NA,NA,NA,NA,NA,NA,NA,NA,If it was not an obvious guess then I randomly picked what Sam may picked.,30,Non-Hispanic,Male,Black/African American,0.5972222222222222,0.5972222222222222,ycml8d6gw0
188,NA,NA,NA,NA,NA,survey-html-form,318,277765,0.0-293.0,6528,NA,"{""feedback"":"""",""age"":""29"",""gender"":""Male"",""other_gender"":"""",""race"":""White"",""other_race"":"""",""ethnicity"":""Non-Hispanic""}",NA,exit_survey,NA,NA,NA,NA,NA,NA,NA,NA,NA,NA,NA,NA,NA,NA,NA,NA,29,Non-Hispanic,Male,White,0.6736111111111112,0.6736111111111112,yfa800lpbz
189,NA,NA,NA,NA,NA,survey-html-form,318,539296,0.0-293.0,13559,NA,"{""feedback"":"""",""age"":""44"",""gender"":""Male"",""other_gender"":"""",""race"":""White"",""other_race"":"""",""ethnicity"":""Non-Hispanic""}",NA,exit_survey,NA,NA,NA,NA,NA,NA,NA,NA,NA,NA,NA,NA,NA,NA,NA,NA,44,Non-Hispanic,Male,White,0.5833333333333334,0.5833333333333334,ylnqw0r7bp
190,NA,NA,NA,NA,NA,survey-html-form,318,290709,0.0-293.0,30791,NA,"{""feedback"":""I clicked on where I saw the ball. Otherwise, I clicked on down."",""age"":""37"",""gender"":""Male"",""other_gender"":"""",""race"":""other_race"",""other_race"":""Hispanic"",""ethnicity"":""Hispanic""}",NA,exit_survey,NA,NA,NA,NA,NA,NA,NA,NA,NA,NA,NA,NA,NA,NA,NA,"I clicked on where I saw the ball. Otherwise, I clicked on down.",37,Hispanic,Male,Hispanic,0.6111111111111112,0.6111111111111112,yrgq4gt5ah
191,NA,NA,NA,NA,NA,survey-html-form,345,1246269,0.0-293.0,49950,NA,"{""feedback"":""The arrows didn't match correctly with the instructions on the screen; I'm not sure if it is because I am using a MAC and not a PC. "",""age"":""60"",""gender"":""Female"",""other_gender"":"""",""race"":""Black/African American"",""other_race"":"""",""ethnicity"":""Non-Hispanic""}",NA,exit_survey,NA,NA,NA,NA,NA,NA,NA,NA,NA,NA,NA,NA,NA,NA,NA,The arrows didn't match correctly with the instructions on the screen; I'm not sure if it is because I am using a MAC and not a PC.,60,Non-Hispanic,Female,Black/African American,0.4861111111111111,0.4861111111111111,yu0wjsvbqc
192,NA,NA,NA,NA,NA,survey-html-form,318,484500,0.0-293.0,39512,NA,"{""feedback"":""Just gut instinct when he couldn't see where the ball was or should be."",""age"":""41"",""gender"":""Female"",""other_gender"":"""",""race"":""White"",""other_race"":"""",""ethnicity"":""Hispanic""}",NA,exit_survey,NA,NA,NA,NA,NA,NA,NA,NA,NA,NA,NA,NA,NA,NA,NA,Just gut instinct when he couldn't see where the ball was or should be.,41,Hispanic,Female,White,0.7361111111111112,0.7361111111111112,yz1ul1d3yj
193,NA,NA,NA,NA,NA,survey-html-form,318,414534,0.0-293.0,89827,NA,"{""feedback"":""Some were obvious as he could see what was in some baskets. If it was not obvious by deduction, then really just guessed randomly. If I couldn't see any baskets, then I would select whichever (if any) he could see the contents of."",""age"":""41"",""gender"":""Male"",""other_gender"":"""",""race"":""White"",""other_race"":"""",""ethnicity"":""Non-Hispanic""}",NA,exit_survey,NA,NA,NA,NA,NA,NA,NA,NA,NA,NA,NA,NA,NA,NA,NA,"Some were obvious as he could see what was in some baskets. If it was not obvious by deduction, then really just guessed randomly. If I couldn't see any baskets, then I would select whichever (if any) he could see the contents of.",41,Non-Hispanic,Male,White,0.6597222222222222,0.6597222222222222,yz5v9rydnv
194,NA,NA,NA,NA,NA,survey-html-form,318,404836,0.0-293.0,37176,NA,"{""feedback"":""When he could see it or it was the only one he didn't see it was easy.  Outside that I guessed."",""age"":""52"",""gender"":""Male"",""other_gender"":"""",""race"":""White"",""other_race"":"""",""ethnicity"":""Non-Hispanic""}",NA,exit_survey,NA,NA,NA,NA,NA,NA,NA,NA,NA,NA,NA,NA,NA,NA,NA,When he could see it or it was the only one he didn't see it was easy.  Outside that I guessed.,52,Non-Hispanic,Male,White,0.6041666666666666,0.6041666666666666,z902xu8gbe
